* Measurement data measured by REW V5.20.4
* Source: Headset (2- USB-C to 3.5mm Headphone Jack Adapter), MICROPHONE (Master Volume), R, volume: 0.540
* Format: 256k Log Swept Sine, 1 sweep at -6.0 dBFS with no timing reference
* Dated: 27 Sep, 2022 3:08:27 PM
* REW Settings:
*  C-weighting compensation: Off
*  Target level: 75.0 dB
* Note: 
* Measurement: Jabra Elite Active 75t L
* Smoothing: None
* Frequency Step: 1/48 octave
* Start Frequency: 20.300 Hz
*
* Freq(Hz)	SPL(dB)	Phase(degrees)
20.299999	110.772	-140.7613
20.600000	110.827	-142.0926
20.900000	110.879	-143.2934
21.200001	110.931	-144.4952
21.400000	110.966	-145.3008
21.799999	111.034	-146.9156
22.000000	111.065	-147.7191
22.400000	111.125	-149.3041
22.700001	111.166	-150.4684
23.000000	111.207	-151.6141
23.299999	111.245	-152.7471
23.600000	111.282	-153.8707
24.000000	111.326	-155.3526
24.299999	111.356	-156.4444
24.700001	111.389	-157.8616
25.000000	111.410	-158.8903
25.400000	111.435	-160.2189
25.799999	111.459	-161.5147
26.200001	111.484	-162.8016
26.500000	111.502	-163.7733
26.900000	111.523	-165.0831
27.200001	111.535	-166.0711
27.600000	111.548	-167.3796
28.000000	111.558	-168.6543
28.500000	111.567	-170.1791
29.000000	111.577	-171.6410
29.500000	111.586	-173.0779
30.000000	111.589	-174.5171
30.400000	111.591	-175.6696
30.700001	111.590	-176.5311
31.100000	111.587	-177.6747
31.500000	111.583	-178.8135
32.000000	111.572	179.7776
32.500000	111.553	178.4159
33.000000	111.528	177.1326
33.500000	111.500	175.9125
34.000000	111.475	174.6942
34.500000	111.454	173.4361
35.000000	111.424	172.1647
35.500000	111.388	170.9391
36.000000	111.357	169.7702
36.500000	111.331	168.6098
37.000000	111.304	167.4222
37.500000	111.268	166.2427
38.200001	111.206	164.7117
38.700001	111.164	163.6805
39.500000	111.104	161.9394
40.000000	111.053	160.8043
40.599998	110.978	159.5163
41.200001	110.904	158.3482
41.799999	110.839	157.2116
42.500000	110.766	155.8440
43.099998	110.699	154.6638
43.700001	110.631	153.4962
44.400002	110.550	152.1488
45.000000	110.475	151.0390
45.500000	110.413	150.1643
46.200001	110.329	148.9696
46.799999	110.256	147.9123
47.500000	110.160	146.6660
48.200001	110.053	145.5278
48.700001	109.980	144.8018
49.400002	109.887	143.7982
50.000000	109.808	142.8455
50.799999	109.682	141.4851
51.500000	109.566	140.3503
52.200001	109.461	139.3034
53.000000	109.357	138.1618
53.799999	109.251	137.0112
54.500000	109.145	135.9836
55.200001	109.034	134.9861
56.000000	108.914	133.8838
57.000000	108.749	132.6130
58.000000	108.573	131.5162
59.000000	108.396	130.1813
60.000000	108.206	128.8564
60.799999	108.081	127.9337
61.500000	107.967	127.1588
62.200001	107.841	126.4178
63.000000	107.696	125.4999
64.000000	107.518	124.3267
65.000000	107.362	123.2728
66.000000	107.183	122.2943
67.000000	107.007	121.3622
68.000000	106.826	120.2606
69.000000	106.654	119.4429
70.000000	106.471	118.4407
71.000000	106.220	117.6667
72.000000	106.049	116.9138
73.000000	105.855	115.7856
74.000000	105.647	115.1662
75.000000	105.481	114.4761
76.199997	105.234	113.5858
77.500000	104.992	112.8134
78.800003	104.740	111.8571
80.000000	104.489	111.1931
81.199997	104.257	110.4677
82.500000	103.977	109.7558
83.800003	103.713	109.1714
85.000000	103.469	108.5829
86.199997	103.227	107.9892
87.500000	102.960	107.5364
88.500000	102.768	107.1980
90.000000	102.466	106.6407
91.199997	102.214	106.2401
92.500000	101.938	106.0261
93.800003	101.690	105.7432
95.000000	101.431	105.4368
96.199997	101.181	105.2483
97.500000	100.898	105.1619
98.800003	100.656	105.1051
100.000000	100.404	104.8171
101.500000	100.103	104.7572
103.000000	99.780	104.8602
104.400002	99.488	105.1456
106.000000	99.178	105.4034
107.500000	98.868	105.6721
109.000000	98.538	105.7950
110.599998	98.205	106.2660
112.000000	97.903	107.0286
113.800003	97.595	107.5261
115.000000	97.411	107.9890
117.199997	96.940	108.8058
118.000000	96.792	109.2571
120.599998	96.268	110.7885
122.000000	96.037	111.3232
124.099998	95.682	112.6855
125.000000	95.543	113.1559
126.500000	95.290	114.3810
128.000000	95.095	115.5197
131.500000	94.539	118.0491
132.000000	94.458	118.4685
134.000000	94.215	120.1223
136.000000	93.950	121.8111
138.000000	93.737	123.6346
140.000000	93.516	125.6765
143.000000	93.194	128.5844
145.000000	93.006	130.5775
147.500000	92.801	133.2194
150.000000	92.613	136.1153
152.500000	92.379	138.3765
155.000000	92.322	140.8695
157.500000	92.263	144.1075
160.000000	92.270	147.0055
162.500000	92.283	150.2274
165.000000	92.388	151.6306
167.500000	92.655	153.8325
170.000000	92.681	155.3723
172.500000	92.823	156.2357
175.000000	92.898	157.1643
177.500000	92.913	158.6636
180.000000	92.998	159.2583
182.500000	92.966	160.8044
185.000000	93.047	161.5182
187.500000	93.080	162.6370
190.000000	93.137	163.6131
192.500000	93.193	164.6867
195.000000	93.266	165.4168
197.500000	93.331	166.4026
200.000000	93.377	167.3979
203.000000	93.473	168.2962
206.000000	93.532	169.0824
209.000000	93.622	169.8365
212.000000	93.676	170.8144
214.000000	93.728	171.0945
218.000000	93.823	172.1382
220.000000	93.877	172.5487
224.000000	93.954	173.4042
227.000000	94.035	173.9099
230.000000	94.075	174.2754
233.000000	94.157	174.9971
236.000000	94.190	175.6790
240.000000	94.263	176.0025
243.000000	94.275	177.2573
247.000000	94.356	177.7468
250.000000	94.431	177.8661
254.000000	94.465	178.3215
258.000000	94.518	178.9943
262.000000	94.611	179.6511
265.000000	94.675	-179.9273
269.000000	94.782	-179.4875
272.000000	94.828	-179.3305
276.000000	94.901	-178.9099
280.000000	94.956	-178.6424
285.000000	95.000	-178.1122
290.000000	95.062	-177.3321
295.000000	95.089	-176.6204
300.000000	95.090	-175.7617
304.000000	95.103	-175.5320
307.000000	95.112	-175.2867
311.000000	95.188	-174.9557
315.000000	95.207	-174.4552
320.000000	95.229	-173.9480
325.000000	95.313	-173.5603
330.000000	95.380	-173.1932
335.000000	95.434	-172.6828
340.000000	95.477	-172.1437
345.000000	95.513	-171.7392
350.000000	95.575	-171.2170
355.000000	95.690	-171.0771
360.000000	95.724	-170.6407
365.000000	95.810	-170.1525
370.000000	95.904	-169.9978
375.000000	95.944	-169.4627
382.000000	96.032	-169.0676
387.000000	96.100	-168.8027
395.000000	96.200	-168.3467
400.000000	96.250	-167.9242
406.000000	96.331	-167.5858
412.000000	96.362	-167.0710
418.000000	96.513	-167.1413
425.000000	96.588	-166.6575
431.000000	96.659	-166.4846
437.000000	96.782	-166.3905
444.000000	96.892	-166.3686
450.000000	96.952	-166.3483
455.000000	97.010	-166.2804
462.000000	97.130	-166.3380
468.000000	97.180	-166.0735
475.000000	97.232	-166.1538
482.000000	97.302	-166.1356
487.000000	97.366	-166.1054
494.000000	97.434	-166.1944
500.000000	97.494	-166.3719
508.000000	97.568	-166.2919
515.000000	97.678	-166.3418
522.000000	97.711	-166.4326
530.000000	97.782	-166.5024
538.000000	97.856	-166.6800
545.000000	97.904	-166.7848
552.000000	97.960	-166.9847
560.000000	98.005	-167.1780
570.000000	98.066	-167.3042
580.000000	98.110	-167.4055
590.000000	98.170	-167.7001
600.000000	98.218	-167.9035
608.000000	98.245	-168.2025
615.000000	98.287	-168.3387
622.000000	98.327	-168.4971
630.000000	98.358	-168.8359
640.000000	98.371	-169.1726
650.000000	98.372	-169.3220
660.000000	98.366	-169.5058
670.000000	98.362	-169.6191
680.000000	98.331	-169.9038
690.000000	98.321	-170.1689
700.000000	98.313	-170.0352
710.000000	98.281	-170.4603
720.000000	98.264	-170.5366
730.000000	98.249	-170.6546
740.000000	98.209	-170.7323
750.000000	98.178	-170.7249
762.000000	98.137	-170.6952
775.000000	98.075	-170.6514
788.000000	98.014	-170.4926
800.000000	97.889	-170.2698
812.000000	97.903	-170.1092
825.000000	97.856	-169.7502
838.000000	97.822	-169.4993
850.000000	97.792	-169.1473
862.000000	97.755	-168.8343
875.000000	97.750	-168.2678
885.000000	97.730	-167.9507
900.000000	97.701	-167.0907
912.000000	97.665	-166.8343
925.000000	97.638	-166.2424
938.000000	97.600	-165.5206
950.000000	97.557	-165.0700
962.000000	97.533	-164.4735
975.000000	97.556	-163.9217
988.000000	97.575	-163.3538
1000.000000	97.606	-162.9905
1015.000000	97.620	-162.2191
1030.000000	97.668	-161.5436
1044.000000	97.698	-161.0430
1060.000000	97.760	-160.3868
1075.000000	97.804	-159.8715
1090.000000	97.835	-159.2850
1106.000000	97.886	-158.8039
1120.000000	97.930	-158.4928
1138.000000	97.950	-158.0076
1150.000000	97.971	-157.7889
1172.000000	98.028	-157.1512
1180.000000	98.023	-157.0258
1206.000000	98.059	-156.5330
1220.000000	98.124	-156.1978
1241.000000	98.182	-155.6396
1250.000000	98.245	-155.4823
1265.000000	98.308	-155.1350
1280.000000	98.355	-154.8083
1315.000000	98.503	-154.0468
1320.000000	98.533	-153.9198
1340.000000	98.605	-153.4283
1360.000000	98.723	-153.0091
1380.000000	98.814	-152.5329
1400.000000	98.859	-152.0021
1430.000000	99.020	-151.5371
1450.000000	99.098	-151.1530
1475.000000	99.201	-150.6539
1500.000000	99.297	-149.9237
1525.000000	99.431	-149.6461
1550.000000	99.510	-149.1107
1575.000000	99.592	-148.5166
1600.000000	99.696	-147.4870
1625.000000	99.765	-147.4029
1650.000000	99.858	-146.8895
1675.000000	99.956	-146.3090
1700.000000	100.080	-145.9214
1725.000000	100.166	-145.2444
1750.000000	100.282	-144.7309
1775.000000	100.404	-144.2149
1800.000000	100.557	-143.5965
1825.000000	100.672	-143.3535
1850.000000	100.812	-142.9474
1875.000000	100.958	-142.6072
1900.000000	101.085	-142.4405
1925.000000	101.254	-142.0436
1950.000000	101.407	-141.7664
1975.000000	101.545	-141.6396
2000.000000	101.694	-141.4414
2030.000000	101.877	-141.4152
2060.000000	102.048	-141.3048
2090.000000	102.234	-141.3279
2120.000000	102.415	-141.4240
2140.000000	102.543	-141.5459
2180.000000	102.785	-141.8865
2200.000000	102.918	-142.2202
2240.000000	103.120	-142.6224
2270.000000	103.269	-143.1994
2300.000000	103.423	-143.5302
2330.000000	103.585	-144.2823
2360.000000	103.709	-144.9137
2400.000000	103.895	-145.5476
2430.000000	103.980	-146.6060
2470.000000	104.104	-147.5634
2500.000000	104.180	-148.4122
2540.000000	104.326	-149.4894
2580.000000	104.411	-150.5611
2620.000000	104.494	-151.6368
2650.000000	104.558	-152.4800
2690.000000	104.616	-153.5446
2720.000000	104.648	-154.2618
2760.000000	104.676	-155.3404
2800.000000	104.710	-156.2710
2850.000000	104.741	-157.5124
2900.000000	104.754	-158.7742
2950.000000	104.777	-159.8258
3000.000000	104.780	-160.9211
3040.000000	104.726	-161.8874
3070.000000	104.680	-162.5109
3110.000000	104.677	-163.4263
3150.000000	104.623	-164.1839
3200.000000	104.545	-164.8523
3250.000000	104.509	-165.9270
3300.000000	104.471	-166.9160
3350.000000	104.479	-167.8301
3400.000000	104.476	-168.6785
3450.000000	104.503	-169.2200
3500.000000	104.469	-170.1649
3550.000000	104.519	-170.3430
3600.000000	104.167	-171.5071
3650.000000	103.755	-170.2618
3700.000000	103.503	-171.7312
3750.000000	103.321	-171.7208
3820.000000	103.191	-171.9679
3870.000000	103.072	-171.9792
3950.000000	102.848	-171.9093
4000.000000	102.760	-171.9404
4060.000000	102.601	-171.9068
4120.000000	102.437	-171.5281
4180.000000	102.342	-171.2917
4250.000000	102.214	-170.3959
4310.000000	102.133	-170.4232
4370.000000	102.008	-170.0971
4440.000000	101.884	-168.9208
4500.000000	101.742	-168.9201
4550.000000	101.763	-168.4056
4620.000000	101.627	-167.3438
4680.000000	101.516	-166.4472
4750.000000	101.446	-166.2956
4820.000000	101.351	-165.4666
4870.000000	101.315	-164.0667
4940.000000	101.122	-163.5725
5000.000000	101.110	-163.1971
5080.000000	101.132	-161.1056
5150.000000	100.999	-160.2641
5220.000000	101.073	-160.1935
5300.000000	101.058	-158.1527
5380.000000	101.053	-157.9306
5450.000000	101.059	-156.2982
5520.000000	100.869	-155.9134
5600.000000	101.068	-154.8527
5700.000000	100.794	-153.7653
5800.000000	100.787	-152.4723
5900.000000	100.916	-152.0836
6000.000000	100.796	-150.6745
6080.000000	100.923	-149.9872
6150.000000	101.227	-148.7140
6220.000000	101.085	-147.0180
6300.000000	101.142	-146.2939
6400.000000	100.668	-144.3929
6500.000000	100.904	-143.6900
6600.000000	100.933	-142.3887
6700.000000	100.680	-139.6486
6800.000000	100.886	-138.5015
6900.000000	100.855	-136.2696
7000.000000	100.865	-131.4738
7100.000000	101.042	-130.5396
7200.000000	101.235	-126.0739
7300.000000	101.915	-121.8003
7400.000000	102.522	-114.7727
7500.000000	103.779	-111.8613
7620.000000	105.274	-108.3698
7750.000000	107.273	-108.2435
7880.000000	108.848	-113.4493
8000.000000	110.917	-124.4154
8120.000000	111.916	-135.2987
8250.000000	112.505	-154.6712
8380.000000	111.632	-169.9156
8500.000000	109.906	-178.1884
8620.000000	108.912	175.4733
8750.000000	107.710	170.4238
8850.000000	106.775	168.4641
9000.000000	106.290	168.7263
9120.000000	105.180	170.7193
9250.000000	103.789	167.2806
9380.000000	103.659	172.8394
9500.000000	102.753	172.1328
9620.000000	102.765	168.3983
9750.000000	102.074	175.3458
9880.000000	102.426	178.1503
10000.000000	101.727	177.4955
10150.000000	102.990	172.7488
10300.000000	102.997	168.9711
10440.000000	103.250	170.3578
10600.000000	102.974	161.4815
10750.000000	103.123	154.2934
10900.000000	103.406	154.0929
11060.000000	102.813	140.4261
11200.000000	101.415	134.1383
11380.000000	100.259	127.8544
11500.000000	99.508	126.1779
11720.000000	99.188	124.5456
11800.000000	97.465	115.4781
12060.000000	96.358	114.8775
12200.000000	96.729	103.6976
12410.000000	94.699	106.8700
12500.000000	93.311	97.4332
12650.000000	93.783	102.0549
12800.000000	93.379	99.8912
13150.000000	92.457	87.6237
13200.000000	91.479	95.4912
13400.000000	88.915	90.4153
13600.000000	90.079	75.5473
13800.000000	89.035	70.0278
14000.000000	88.048	85.6001
14300.000000	85.296	85.5804
14500.000000	84.396	67.2859
14750.000000	87.267	79.4044
15000.000000	87.061	78.8390
15250.000000	88.028	47.0667
15500.000000	89.556	44.5382
15750.000000	85.795	41.4664
16000.000000	86.355	19.8407
16250.000000	92.549	9.5161
16500.000000	94.149	-16.3853
16750.000000	90.983	-33.2125
17000.000000	95.423	-63.2556
17250.000000	90.447	-115.6376
17500.000000	94.071	-170.6251
17750.000000	90.605	152.4846
18000.000000	80.185	121.3996
18250.000000	82.462	96.8616
18500.000000	75.644	60.6614
18750.000000	77.801	-16.6302
19000.000000	70.900	-74.2266
19250.000000	72.042	-111.6602
19500.000000	64.803	-109.8754
19750.000000	65.151	155.9784
