* Measurement data measured by REW V5.20.4
* Source: Headset (2- USB-C to 3.5mm Headphone Jack Adapter), MICROPHONE (Master Volume), R, volume: 0.630
* Format: 256k Log Swept Sine, 1 sweep at -6.0 dBFS with no timing reference
* Dated: 10 Sep, 2022 3:07:45 PM
* REW Settings:
*  C-weighting compensation: Off
*  Target level: 75.0 dB
* Note: 
* Measurement: Dark Sky R
* Smoothing: None
* Frequency Step: 1/48 octave
* Start Frequency: 20.300 Hz
*
* Freq(Hz)	SPL(dB)	Phase(degrees)
20.299999	102.426	-6.6084
20.600000	102.375	-6.8093
20.900000	102.312	-6.7704
21.200001	102.264	-6.6500
21.400000	102.248	-6.6255
21.799999	102.248	-6.8759
22.000000	102.260	-7.2107
22.400000	102.286	-8.3145
22.700001	102.295	-9.3992
23.000000	102.289	-10.5203
23.299999	102.271	-11.5072
23.600000	102.251	-12.2525
24.000000	102.235	-12.8044
24.299999	102.240	-12.9489
24.700001	102.263	-12.9691
25.000000	102.282	-13.0042
25.400000	102.288	-13.2146
25.799999	102.255	-13.6496
26.200001	102.185	-14.2497
26.500000	102.121	-14.7521
26.900000	102.037	-15.4399
27.200001	101.985	-15.9485
27.600000	101.939	-16.5948
28.000000	101.913	-17.1556
28.500000	101.900	-17.6393
29.000000	101.909	-17.8918
29.500000	101.942	-18.1564
30.000000	101.968	-18.7271
30.400000	101.951	-19.3884
30.700001	101.905	-19.8833
31.100000	101.810	-20.3470
31.500000	101.707	-20.5088
32.000000	101.612	-20.4944
32.500000	101.547	-20.6402
33.000000	101.463	-21.1267
33.500000	101.347	-21.6389
34.000000	101.270	-21.8914
34.500000	101.302	-22.0790
35.000000	101.406	-22.5811
35.500000	101.473	-23.3774
36.000000	101.432	-23.9991
36.500000	101.307	-24.0977
37.000000	101.176	-23.8865
37.500000	101.078	-23.9307
38.200001	100.970	-24.8457
38.700001	100.908	-25.6644
39.500000	100.927	-26.2673
40.000000	101.002	-26.2728
40.599998	101.067	-26.1511
41.200001	101.061	-26.0578
41.799999	101.007	-26.3960
42.500000	100.889	-27.7392
43.099998	100.725	-28.9903
43.700001	100.588	-29.2107
44.400002	100.598	-28.4881
45.000000	100.646	-28.4394
45.500000	100.554	-28.9716
46.200001	100.261	-29.4906
46.799999	100.129	-29.4048
47.500000	100.253	-29.8602
48.200001	100.394	-30.6741
48.700001	100.420	-30.6030
49.400002	100.439	-29.8953
50.000000	100.408	-30.1491
50.799999	100.138	-31.6486
51.500000	99.884	-32.2273
52.200001	99.865	-32.2936
53.000000	99.890	-32.8233
53.799999	99.760	-32.8621
54.500000	99.693	-32.8202
55.200001	99.658	-33.6626
56.000000	99.557	-34.5315
57.000000	99.511	-34.4553
58.000000	99.431	-34.5835
59.000000	99.347	-34.4900
60.000000	99.319	-35.3713
60.799999	99.161	-35.9082
61.500000	99.065	-35.6524
62.200001	99.087	-35.7391
63.000000	99.080	-36.5224
64.000000	98.956	-36.5407
65.000000	98.905	-36.3395
66.000000	98.753	-37.0361
67.000000	98.699	-37.2510
68.000000	98.668	-37.8368
69.000000	98.514	-37.0897
70.000000	98.591	-37.5395
71.000000	98.504	-39.5734
72.000000	98.361	-38.9061
73.000000	98.282	-37.3556
74.000000	98.168	-37.1538
75.000000	98.106	-39.0462
76.199997	97.867	-40.3740
77.500000	97.774	-37.5667
78.800003	97.946	-39.4741
80.000000	97.546	-40.1306
81.199997	97.610	-39.3780
82.500000	97.400	-41.4832
83.800003	97.411	-40.0931
85.000000	97.399	-39.6270
86.199997	97.216	-39.8441
87.500000	97.025	-40.7565
88.500000	96.997	-39.5407
90.000000	97.215	-39.9360
91.199997	96.959	-41.4619
92.500000	96.783	-39.6709
93.800003	96.886	-40.7970
95.000000	96.591	-41.6219
96.199997	96.707	-41.5561
97.500000	96.624	-40.8054
98.800003	96.382	-41.9154
100.000000	95.828	-41.6743
101.500000	96.370	-41.3600
103.000000	96.227	-41.1241
104.400002	96.109	-41.5656
106.000000	96.034	-41.7183
107.500000	95.955	-41.2736
109.000000	95.893	-41.8270
110.599998	95.695	-41.9158
112.000000	95.659	-41.4827
113.800003	95.575	-40.6895
115.000000	95.673	-42.4615
117.199997	95.503	-40.4384
118.000000	95.264	-40.8439
120.599998	95.166	-42.4515
122.000000	95.055	-41.3673
124.099998	95.054	-42.1407
125.000000	94.961	-41.2640
126.500000	95.089	-42.6002
128.000000	94.788	-42.3667
131.500000	94.683	-40.2818
132.000000	94.672	-40.6163
134.000000	94.563	-40.5257
136.000000	94.374	-40.4509
138.000000	94.351	-40.6619
140.000000	94.277	-40.8837
143.000000	94.085	-40.4012
145.000000	94.032	-40.7064
147.500000	93.991	-40.0621
150.000000	93.747	-39.2400
152.500000	93.763	-40.7504
155.000000	93.658	-39.1690
157.500000	93.528	-38.3293
160.000000	93.389	-38.7596
162.500000	93.304	-38.2019
165.000000	93.181	-38.7023
167.500000	93.174	-38.7814
170.000000	93.058	-37.7411
172.500000	92.938	-37.7238
175.000000	92.775	-37.0592
177.500000	92.796	-37.3421
180.000000	92.716	-37.0037
182.500000	92.694	-36.4312
185.000000	92.455	-35.9284
187.500000	92.405	-36.2474
190.000000	92.384	-35.3930
192.500000	92.292	-36.1693
195.000000	92.256	-34.8021
197.500000	92.218	-35.4089
200.000000	92.109	-33.7059
203.000000	92.141	-33.9750
206.000000	92.011	-34.2570
209.000000	91.715	-33.4599
212.000000	92.007	-32.5463
214.000000	91.763	-32.9313
218.000000	91.593	-31.8641
220.000000	91.672	-32.0527
224.000000	91.732	-31.1917
227.000000	91.560	-31.3819
230.000000	91.447	-30.9537
233.000000	91.414	-29.7966
236.000000	91.388	-29.1361
240.000000	91.374	-29.5736
243.000000	91.303	-28.5673
247.000000	91.222	-28.1016
250.000000	91.127	-27.5305
254.000000	91.200	-26.9444
258.000000	91.162	-27.9972
262.000000	91.101	-26.5693
265.000000	91.067	-25.7612
269.000000	90.999	-25.3190
272.000000	90.982	-25.0350
276.000000	90.907	-24.2249
280.000000	90.929	-23.7989
285.000000	90.867	-22.9823
290.000000	90.819	-23.2040
295.000000	90.837	-21.4942
300.000000	90.738	-21.8060
304.000000	90.924	-21.4729
307.000000	90.759	-21.1838
311.000000	90.862	-20.8551
315.000000	90.722	-20.4573
320.000000	90.765	-20.3159
325.000000	90.869	-19.9751
330.000000	90.741	-19.5111
335.000000	90.705	-18.6447
340.000000	90.733	-17.8703
345.000000	90.822	-16.9706
350.000000	90.971	-16.1113
355.000000	90.838	-16.6135
360.000000	90.898	-16.3992
365.000000	90.404	-15.5961
370.000000	90.777	-17.6181
375.000000	90.652	-15.2854
382.000000	90.620	-15.2161
387.000000	90.675	-15.1983
395.000000	90.523	-14.8990
400.000000	90.386	-14.6521
406.000000	90.620	-13.9820
412.000000	90.546	-13.9433
418.000000	90.573	-13.4723
425.000000	90.652	-13.2061
431.000000	90.574	-13.0302
437.000000	90.651	-12.1626
444.000000	90.532	-12.7239
450.000000	90.588	-12.6665
455.000000	90.595	-12.4959
462.000000	90.509	-11.7106
468.000000	90.567	-11.8502
475.000000	90.552	-11.4653
482.000000	90.428	-11.1255
487.000000	90.501	-10.7448
494.000000	90.494	-10.7790
500.000000	90.477	-10.1612
508.000000	90.456	-10.3582
515.000000	90.416	-9.9650
522.000000	90.392	-9.8225
530.000000	90.439	-9.3859
538.000000	90.382	-8.8934
545.000000	90.344	-8.5973
552.000000	90.451	-8.7205
560.000000	90.463	-8.6340
570.000000	90.358	-7.8709
580.000000	90.249	-7.6402
590.000000	90.379	-6.8993
600.000000	90.225	-6.6527
608.000000	90.222	-6.8655
615.000000	90.244	-6.1314
622.000000	90.181	-6.0302
630.000000	90.202	-6.2319
640.000000	90.079	-5.1991
650.000000	90.147	-4.7693
660.000000	90.177	-4.9325
670.000000	90.069	-4.2082
680.000000	90.101	-3.5976
690.000000	90.088	-2.1975
700.000000	90.037	-2.3497
710.000000	89.857	-2.6057
720.000000	90.003	-0.6653
730.000000	89.904	1.1618
740.000000	90.069	1.1088
750.000000	89.476	-1.8743
762.000000	89.784	0.5442
775.000000	90.047	1.9281
788.000000	89.928	1.3810
800.000000	89.736	2.5031
812.000000	89.824	3.8312
825.000000	90.053	4.2589
838.000000	90.003	4.4791
850.000000	89.987	5.2620
862.000000	89.916	4.7082
875.000000	89.883	7.2648
885.000000	90.052	8.5243
900.000000	89.958	6.8639
912.000000	90.102	8.8174
925.000000	90.029	8.4536
938.000000	90.115	8.9248
950.000000	90.164	9.5284
962.000000	90.203	9.9341
975.000000	90.242	10.5325
988.000000	90.299	11.2470
1000.000000	90.327	11.5968
1015.000000	90.388	11.8557
1030.000000	90.469	12.4592
1044.000000	90.514	12.8130
1060.000000	90.612	13.2285
1075.000000	90.630	13.7493
1090.000000	90.678	14.0370
1106.000000	90.711	14.4797
1120.000000	90.771	14.8088
1138.000000	90.818	15.3067
1150.000000	90.843	15.5941
1172.000000	90.927	15.6122
1180.000000	90.942	16.0743
1206.000000	91.015	16.4532
1220.000000	91.024	16.7284
1241.000000	91.156	17.1027
1250.000000	91.208	17.3571
1265.000000	91.289	17.7401
1280.000000	91.344	17.9111
1315.000000	91.522	18.5503
1320.000000	91.524	18.7195
1340.000000	91.633	18.9099
1360.000000	91.783	18.6937
1380.000000	91.853	19.8251
1400.000000	91.972	19.9283
1430.000000	92.137	20.5070
1450.000000	92.227	20.8696
1475.000000	92.360	21.2906
1500.000000	92.474	21.6934
1525.000000	92.630	22.1310
1550.000000	92.750	22.5038
1575.000000	92.863	22.8120
1600.000000	92.977	23.1462
1625.000000	93.094	23.4890
1650.000000	93.208	23.7998
1675.000000	93.338	24.0514
1700.000000	93.468	24.3598
1725.000000	93.598	24.5702
1750.000000	93.728	24.7661
1775.000000	93.858	24.9224
1800.000000	94.001	25.0413
1825.000000	94.140	25.1286
1850.000000	94.287	25.1564
1875.000000	94.420	25.1234
1900.000000	94.560	25.0627
1925.000000	94.700	25.0047
1950.000000	94.834	24.8166
1975.000000	94.969	24.6432
2000.000000	95.106	24.3821
2030.000000	95.262	24.0162
2060.000000	95.419	23.6290
2090.000000	95.559	23.1437
2120.000000	95.700	22.5739
2140.000000	95.788	22.1554
2180.000000	95.956	21.2649
2200.000000	96.035	20.7441
2240.000000	96.174	19.7181
2270.000000	96.261	18.8795
2300.000000	96.335	17.9708
2330.000000	96.398	17.0532
2360.000000	96.448	16.1241
2400.000000	96.496	14.8764
2430.000000	96.518	13.9328
2470.000000	96.519	12.7044
2500.000000	96.503	11.8237
2540.000000	96.464	10.6548
2580.000000	96.405	9.5789
2620.000000	96.329	8.6165
2650.000000	96.263	7.9216
2690.000000	96.160	7.1303
2720.000000	96.069	6.5987
2760.000000	95.944	5.9745
2800.000000	95.811	5.5190
2850.000000	95.640	5.0702
2900.000000	95.460	4.7857
2950.000000	95.278	4.6888
3000.000000	95.097	4.7517
3040.000000	94.954	4.9291
3070.000000	94.853	5.1139
3110.000000	94.714	5.4569
3150.000000	94.582	5.8578
3200.000000	94.428	6.4575
3250.000000	94.276	7.1861
3300.000000	94.134	8.0344
3350.000000	94.013	8.9505
3400.000000	93.898	9.9234
3450.000000	93.796	11.0097
3500.000000	93.704	12.1527
3550.000000	93.633	13.3388
3600.000000	93.568	14.6032
3650.000000	93.521	15.9071
3700.000000	93.489	17.2593
3750.000000	93.466	18.6283
3820.000000	93.464	20.5801
3870.000000	93.474	22.0495
3950.000000	93.523	24.3544
4000.000000	93.574	25.8941
4060.000000	93.653	27.6498
4120.000000	93.752	29.4258
4180.000000	93.875	31.2074
4250.000000	94.048	33.2991
4310.000000	94.221	35.0219
4370.000000	94.430	36.7019
4440.000000	94.704	38.6376
4500.000000	94.967	40.2386
4550.000000	95.200	41.5263
4620.000000	95.577	43.1603
4680.000000	95.933	44.5073
4750.000000	96.394	45.8143
4820.000000	96.905	46.8454
4870.000000	97.292	47.3942
4940.000000	97.866	47.8378
5000.000000	98.397	47.8851
5080.000000	99.157	47.2613
5150.000000	99.861	45.9647
5220.000000	100.588	43.7598
5300.000000	101.405	39.9679
5380.000000	102.139	34.5668
5450.000000	102.630	28.5961
5520.000000	102.896	21.6994
5600.000000	102.871	13.4214
5700.000000	102.366	3.8898
5800.000000	101.498	-3.4856
5900.000000	100.471	-8.4496
6000.000000	99.425	-11.2424
6080.000000	98.637	-12.3123
6150.000000	97.994	-12.5972
6220.000000	97.407	-12.3069
6300.000000	96.789	-11.5512
6400.000000	96.119	-10.0685
6500.000000	95.549	-8.1345
6600.000000	95.069	-5.8305
6700.000000	94.684	-3.4060
6800.000000	94.390	-0.8463
6900.000000	94.203	1.8615
7000.000000	94.153	4.4685
7100.000000	94.186	7.1229
7200.000000	94.307	9.5940
7300.000000	94.523	11.8366
7400.000000	94.819	13.7983
7500.000000	95.208	15.3455
7620.000000	95.804	16.4414
7750.000000	96.692	16.2396
7880.000000	97.525	14.0054
8000.000000	98.319	9.2699
8120.000000	98.949	1.3690
8250.000000	99.114	-10.3121
8380.000000	98.456	-22.7684
8500.000000	97.231	-32.1240
8620.000000	95.709	-38.2641
8750.000000	93.980	-41.7179
8850.000000	92.698	-42.5949
9000.000000	90.929	-42.0115
9120.000000	89.649	-40.2312
9250.000000	88.399	-37.6452
9380.000000	87.253	-34.4792
9500.000000	86.313	-30.9041
9620.000000	85.455	-27.2777
9750.000000	84.602	-22.9825
9880.000000	83.864	-18.3981
10000.000000	83.252	-13.9524
10150.000000	82.562	-7.8924
10300.000000	82.037	-2.0822
10440.000000	81.552	4.0787
10600.000000	81.236	10.3385
10750.000000	81.276	17.7462
10900.000000	81.439	23.9958
11060.000000	81.769	29.2788
11200.000000	82.179	33.0326
11380.000000	82.781	36.4617
11500.000000	83.164	38.1582
11720.000000	83.943	40.2210
11800.000000	84.242	40.7051
12060.000000	85.390	40.5884
12200.000000	86.080	39.2349
12410.000000	87.314	34.4179
12500.000000	87.818	31.1036
12650.000000	88.546	23.6702
12800.000000	88.958	14.0027
13150.000000	88.059	-9.2414
13200.000000	87.783	-11.9603
13400.000000	86.453	-20.2550
13600.000000	85.105	-25.1408
13800.000000	83.943	-27.7569
14000.000000	83.019	-29.1743
14300.000000	81.994	-29.8270
14500.000000	81.629	-30.6287
14750.000000	81.373	-31.2574
15000.000000	81.492	-33.4722
15250.000000	81.863	-37.0519
15500.000000	82.614	-44.1496
15750.000000	83.359	-55.5750
16000.000000	83.951	-72.9584
16250.000000	83.514	-95.5612
16500.000000	81.925	-117.5554
16750.000000	79.725	-135.0223
17000.000000	77.484	-148.1256
17250.000000	75.296	-158.4431
17500.000000	73.410	-168.2848
17750.000000	71.622	-177.9464
18000.000000	70.090	172.6050
18250.000000	69.087	163.9721
18500.000000	66.887	152.6179
18750.000000	67.308	134.4657
19000.000000	66.531	120.9825
19250.000000	65.426	99.7662
19500.000000	64.542	77.1183
19750.000000	63.863	48.5220
