* Measurement data measured by REW V5.20.4
* Source: Headset (2- USB-C to 3.5mm Headphone Jack Adapter), MICROPHONE (Master Volume), R, volume: 0.630
* Format: 256k Log Swept Sine, 1 sweep at -6.0 dBFS with no timing reference
* Dated: 10 Sep, 2022 3:09:19 PM
* REW Settings:
*  C-weighting compensation: Off
*  Target level: 75.0 dB
* Note: 
* Measurement: Dark Sky L
* Smoothing: None
* Frequency Step: 1/48 octave
* Start Frequency: 20.300 Hz
*
* Freq(Hz)	SPL(dB)	Phase(degrees)
20.299999	102.627	-2.0722
20.600000	102.589	-2.4500
20.900000	102.544	-2.7618
21.200001	102.494	-2.9994
21.400000	102.462	-3.1115
21.799999	102.412	-3.2903
22.000000	102.396	-3.4017
22.400000	102.375	-3.7687
22.700001	102.366	-4.1952
23.000000	102.361	-4.7300
23.299999	102.367	-5.3541
23.600000	102.391	-6.0889
24.000000	102.447	-7.3009
24.299999	102.487	-8.3936
24.700001	102.504	-9.9571
25.000000	102.472	-10.9895
25.400000	102.378	-11.8544
25.799999	102.278	-11.9557
26.200001	102.234	-11.5092
26.500000	102.250	-11.1203
26.900000	102.309	-10.8577
27.200001	102.351	-10.9326
27.600000	102.376	-11.3009
28.000000	102.361	-11.7560
28.500000	102.312	-12.1850
29.000000	102.283	-12.4044
29.500000	102.313	-12.6753
30.000000	102.382	-13.5129
30.400000	102.400	-14.7564
30.700001	102.349	-15.8791
31.100000	102.181	-17.1339
31.500000	101.955	-17.6045
32.000000	101.773	-17.0272
32.500000	101.815	-16.4742
33.000000	101.911	-17.1720
33.500000	101.840	-18.3922
34.000000	101.660	-18.5215
34.500000	101.648	-17.6119
35.000000	101.848	-17.5609
35.500000	101.969	-19.1592
36.000000	101.811	-20.6951
36.500000	101.563	-20.3037
37.000000	101.592	-18.8037
37.500000	101.861	-18.9202
38.200001	101.896	-22.2200
38.700001	101.517	-23.6960
39.500000	101.197	-21.4983
40.000000	101.473	-20.8040
40.599998	101.783	-22.7429
41.200001	101.702	-25.0233
41.799999	101.426	-25.2178
42.500000	101.312	-23.6504
43.099998	101.403	-23.1205
43.700001	101.463	-23.7375
44.400002	101.422	-24.8479
45.000000	101.362	-25.6840
45.500000	101.312	-26.5931
46.200001	101.132	-28.2153
46.799999	100.845	-28.7799
47.500000	100.662	-27.4517
48.200001	100.861	-26.2485
48.700001	101.048	-26.6588
49.400002	101.099	-28.1001
50.000000	100.996	-28.9896
50.799999	100.830	-29.5894
51.500000	100.692	-29.6580
52.200001	100.617	-29.2872
53.000000	100.612	-29.4121
53.799999	100.549	-30.2988
54.500000	100.490	-30.8247
55.200001	100.502	-31.0556
56.000000	100.501	-31.2422
57.000000	100.344	-31.2128
58.000000	100.210	-31.1756
59.000000	100.286	-32.3135
60.000000	100.237	-33.8101
60.799999	100.107	-33.5483
61.500000	100.083	-33.1067
62.200001	100.077	-33.4645
63.000000	100.008	-34.2192
64.000000	99.909	-35.0622
65.000000	99.722	-35.5678
66.000000	99.670	-35.1656
67.000000	99.715	-36.1514
68.000000	99.514	-36.5903
69.000000	99.508	-35.9384
70.000000	99.461	-37.1058
71.000000	99.200	-36.9822
72.000000	99.312	-36.8022
73.000000	99.255	-38.3888
74.000000	99.043	-37.4796
75.000000	99.132	-37.1674
76.199997	99.023	-38.1433
77.500000	98.937	-37.8609
78.800003	98.739	-38.2588
80.000000	98.633	-39.7978
81.199997	98.607	-39.5386
82.500000	98.695	-39.4301
83.800003	98.593	-39.5451
85.000000	98.288	-39.4640
86.199997	98.216	-37.5780
87.500000	98.203	-40.2867
88.500000	98.167	-40.3914
90.000000	98.200	-41.1535
91.199997	98.026	-40.3559
92.500000	97.796	-40.4808
93.800003	97.954	-40.6442
95.000000	97.829	-42.2077
96.199997	97.804	-41.3637
97.500000	97.486	-41.7701
98.800003	97.495	-42.5237
100.000000	97.098	-43.4156
101.500000	97.476	-41.7704
103.000000	97.174	-43.0617
104.400002	97.330	-43.0926
106.000000	96.837	-42.8988
107.500000	97.039	-43.2741
109.000000	96.820	-42.9565
110.599998	96.849	-43.5971
112.000000	96.551	-43.2966
113.800003	96.668	-43.7153
115.000000	96.587	-43.0580
117.199997	96.327	-42.3879
118.000000	96.627	-42.6335
120.599998	96.123	-43.5347
122.000000	96.251	-42.0130
124.099998	96.207	-45.5068
125.000000	95.918	-45.2993
126.500000	95.755	-43.6674
128.000000	96.118	-44.3170
131.500000	95.386	-40.9284
132.000000	95.752	-39.8686
134.000000	95.493	-43.9466
136.000000	95.105	-46.6404
138.000000	95.238	-45.3426
140.000000	95.481	-44.0153
143.000000	95.409	-45.2905
145.000000	95.300	-41.4184
147.500000	94.018	-43.0581
150.000000	94.482	-46.3095
152.500000	94.956	-44.3255
155.000000	94.213	-44.7231
157.500000	94.186	-43.2038
160.000000	94.348	-42.1862
162.500000	94.043	-44.3197
165.000000	94.115	-47.6527
167.500000	93.641	-39.8078
170.000000	93.503	-43.6569
172.500000	93.591	-43.1120
175.000000	93.839	-40.0758
177.500000	93.362	-42.8512
180.000000	93.314	-42.4872
182.500000	92.945	-40.8513
185.000000	92.487	-43.9714
187.500000	92.763	-42.6373
190.000000	92.618	-45.3865
192.500000	92.858	-42.9246
195.000000	92.545	-42.2436
197.500000	92.692	-40.6363
200.000000	92.848	-41.3390
203.000000	92.613	-41.5362
206.000000	92.225	-39.2310
209.000000	92.304	-41.5565
212.000000	91.856	-41.5926
214.000000	92.106	-38.5726
218.000000	91.906	-37.6606
220.000000	91.543	-37.4694
224.000000	91.759	-37.8740
227.000000	91.539	-36.0576
230.000000	91.345	-36.9064
233.000000	91.409	-36.3213
236.000000	91.216	-35.4271
240.000000	91.212	-34.3715
243.000000	91.347	-34.7228
247.000000	91.233	-34.3097
250.000000	90.834	-34.3377
254.000000	90.764	-33.2213
258.000000	90.896	-33.6679
262.000000	91.006	-32.4427
265.000000	90.920	-28.8160
269.000000	90.729	-29.7521
272.000000	90.600	-29.2962
276.000000	90.554	-29.1790
280.000000	90.491	-28.1130
285.000000	90.379	-27.2628
290.000000	90.315	-26.0124
295.000000	90.410	-25.5611
300.000000	90.134	-25.5002
304.000000	90.331	-24.2196
307.000000	90.317	-23.4979
311.000000	90.033	-22.1172
315.000000	90.382	-23.1187
320.000000	90.128	-21.4027
325.000000	90.450	-22.2462
330.000000	89.931	-20.4730
335.000000	89.833	-18.3955
340.000000	89.919	-18.8724
345.000000	90.241	-18.9269
350.000000	90.221	-17.8080
355.000000	90.003	-18.8196
360.000000	90.178	-16.2769
365.000000	89.988	-16.5426
370.000000	90.337	-16.8386
375.000000	90.136	-14.5572
382.000000	90.074	-14.9253
387.000000	90.320	-13.2097
395.000000	90.289	-13.8938
400.000000	90.118	-14.2176
406.000000	90.460	-12.0317
412.000000	90.217	-12.4949
418.000000	90.124	-12.0764
425.000000	90.208	-11.8968
431.000000	90.216	-13.1141
437.000000	90.517	-9.6952
444.000000	90.233	-9.7270
450.000000	90.551	-10.0489
455.000000	90.178	-8.9309
462.000000	90.270	-10.0646
468.000000	90.540	-8.5406
475.000000	90.268	-8.7050
482.000000	90.358	-8.6726
487.000000	90.360	-7.3954
494.000000	90.430	-9.2849
500.000000	90.459	-7.7031
508.000000	90.434	-7.4082
515.000000	90.537	-7.1412
522.000000	90.396	-6.6521
530.000000	90.468	-6.5128
538.000000	90.486	-6.5515
545.000000	90.463	-6.9689
552.000000	90.471	-6.5711
560.000000	90.465	-6.2562
570.000000	90.524	-5.7264
580.000000	90.392	-5.9603
590.000000	90.423	-5.2115
600.000000	90.451	-5.0679
608.000000	90.403	-4.7388
615.000000	90.399	-4.7735
622.000000	90.402	-4.1143
630.000000	90.391	-4.4306
640.000000	90.352	-3.5233
650.000000	90.393	-3.9264
660.000000	90.374	-2.9666
670.000000	90.191	-4.0729
680.000000	90.252	-3.2517
690.000000	90.182	-0.1253
700.000000	90.311	-1.9844
710.000000	90.253	-1.5552
720.000000	90.288	-0.6327
730.000000	90.189	-0.5414
740.000000	90.197	0.0301
750.000000	90.215	0.1500
762.000000	90.180	0.7886
775.000000	90.094	1.4437
788.000000	90.109	2.0910
800.000000	90.090	2.4265
812.000000	90.032	3.2985
825.000000	90.043	4.0032
838.000000	90.072	4.9279
850.000000	90.048	5.5758
862.000000	89.995	6.0193
875.000000	90.044	6.4160
885.000000	90.132	6.5915
900.000000	90.133	7.8632
912.000000	90.099	8.1751
925.000000	90.185	8.9581
938.000000	90.192	9.2896
950.000000	90.225	9.9450
962.000000	90.248	10.5150
975.000000	90.326	11.0263
988.000000	90.327	11.5721
1000.000000	90.406	11.8150
1015.000000	90.491	12.2179
1030.000000	90.530	13.2106
1044.000000	90.570	13.6240
1060.000000	90.631	13.9805
1075.000000	90.728	14.4418
1090.000000	90.748	14.7895
1106.000000	90.798	15.3189
1120.000000	90.878	15.5494
1138.000000	90.864	15.9735
1150.000000	90.929	16.2775
1172.000000	91.014	16.9086
1180.000000	90.997	16.9271
1206.000000	91.084	17.4797
1220.000000	91.155	17.8603
1241.000000	91.240	18.2753
1250.000000	91.288	18.4140
1265.000000	91.373	18.7137
1280.000000	91.455	19.0438
1315.000000	91.592	19.7254
1320.000000	91.621	19.6769
1340.000000	91.742	20.1533
1360.000000	91.860	20.5320
1380.000000	91.966	20.8638
1400.000000	92.091	21.2555
1430.000000	92.238	21.8918
1450.000000	92.354	22.2494
1475.000000	92.480	22.6554
1500.000000	92.631	23.1671
1525.000000	92.777	23.4667
1550.000000	92.878	24.0150
1575.000000	92.993	24.3165
1600.000000	93.121	24.6665
1625.000000	93.251	25.0585
1650.000000	93.382	25.4017
1675.000000	93.514	25.7167
1700.000000	93.641	25.9772
1725.000000	93.779	26.2430
1750.000000	93.921	26.4454
1775.000000	94.069	26.6422
1800.000000	94.220	26.6878
1825.000000	94.362	26.8950
1850.000000	94.510	26.9557
1875.000000	94.658	26.9100
1900.000000	94.809	26.8782
1925.000000	94.964	26.8031
1950.000000	95.116	26.6034
1975.000000	95.278	26.3978
2000.000000	95.410	26.1783
2030.000000	95.579	25.7939
2060.000000	95.751	25.2955
2090.000000	95.911	24.8394
2120.000000	96.062	24.2194
2140.000000	96.166	23.7309
2180.000000	96.360	22.7416
2200.000000	96.446	22.2157
2240.000000	96.601	21.0416
2270.000000	96.698	20.1042
2300.000000	96.784	19.1493
2330.000000	96.860	18.0917
2360.000000	96.927	17.0342
2400.000000	96.989	15.6135
2430.000000	97.009	14.5715
2470.000000	97.016	13.1505
2500.000000	97.000	12.1216
2540.000000	96.962	10.7756
2580.000000	96.904	9.5216
2620.000000	96.825	8.3867
2650.000000	96.752	7.5888
2690.000000	96.636	6.6409
2720.000000	96.541	6.0035
2760.000000	96.407	5.2577
2800.000000	96.257	4.6734
2850.000000	96.072	4.1134
2900.000000	95.886	3.7623
2950.000000	95.689	3.5659
3000.000000	95.493	3.5644
3040.000000	95.338	3.6570
3070.000000	95.223	3.8475
3110.000000	95.078	4.1048
3150.000000	94.935	4.4610
3200.000000	94.772	5.0495
3250.000000	94.612	5.7477
3300.000000	94.462	6.5365
3350.000000	94.329	7.4606
3400.000000	94.209	8.4484
3450.000000	94.096	9.4708
3500.000000	94.004	10.5469
3550.000000	93.925	11.7670
3600.000000	93.855	12.9733
3650.000000	93.804	14.2146
3700.000000	93.769	15.5587
3750.000000	93.745	16.9022
3820.000000	93.731	18.8327
3870.000000	93.750	20.2302
3950.000000	93.795	22.5322
4000.000000	93.840	23.9849
4060.000000	93.928	25.6726
4120.000000	94.031	27.4349
4180.000000	94.154	29.1358
4250.000000	94.332	31.1626
4310.000000	94.516	32.8068
4370.000000	94.724	34.3943
4440.000000	95.001	36.1559
4500.000000	95.272	37.6125
4550.000000	95.518	38.7900
4620.000000	95.897	40.2369
4680.000000	96.253	41.3336
4750.000000	96.716	42.3950
4820.000000	97.220	43.1478
4870.000000	97.608	43.4938
4940.000000	98.177	43.5884
5000.000000	98.703	43.2481
5080.000000	99.437	42.0506
5150.000000	100.111	40.2067
5220.000000	100.779	37.3637
5300.000000	101.486	32.8464
5380.000000	102.059	26.8738
5450.000000	102.376	20.6585
5520.000000	102.455	13.9131
5600.000000	102.247	6.3015
5700.000000	101.599	-1.9638
5800.000000	100.688	-8.1275
5900.000000	99.680	-12.0890
6000.000000	98.679	-14.2730
6080.000000	97.923	-14.9941
6150.000000	97.310	-15.0653
6220.000000	96.745	-14.6782
6300.000000	96.157	-13.8622
6400.000000	95.502	-12.3669
6500.000000	94.935	-10.4863
6600.000000	94.464	-8.3039
6700.000000	94.069	-6.0048
6800.000000	93.755	-3.5095
6900.000000	93.554	-1.0259
7000.000000	93.463	1.5006
7100.000000	93.453	4.0145
7200.000000	93.520	6.3396
7300.000000	93.653	8.4273
7400.000000	93.869	10.2109
7500.000000	94.146	11.7016
7620.000000	94.566	12.7936
7750.000000	95.226	12.9542
7880.000000	95.779	11.5289
8000.000000	96.294	8.4404
8120.000000	96.721	3.4171
8250.000000	96.902	-4.2724
8380.000000	96.601	-13.2209
8500.000000	95.865	-20.9768
8620.000000	94.786	-27.2381
8750.000000	93.381	-31.5273
8850.000000	92.258	-33.2895
9000.000000	90.613	-33.8290
9120.000000	89.370	-32.7976
9250.000000	88.123	-30.6783
9380.000000	86.979	-27.5225
9500.000000	86.021	-23.8044
9620.000000	85.182	-19.7827
9750.000000	84.392	-14.6013
9880.000000	83.787	-9.2275
10000.000000	83.384	-4.0162
10150.000000	83.099	2.2963
10300.000000	83.042	7.8712
10440.000000	83.069	12.2887
10600.000000	83.165	16.0132
10750.000000	83.234	18.4121
10900.000000	83.275	20.6245
11060.000000	83.352	22.6322
11200.000000	83.450	24.4993
11380.000000	83.603	26.5598
11500.000000	83.767	27.6408
11720.000000	84.196	29.0351
11800.000000	84.386	29.4547
12060.000000	85.177	28.4606
12200.000000	85.661	26.5379
12410.000000	86.415	21.0384
12500.000000	86.700	17.8309
12650.000000	87.013	11.0713
12800.000000	87.057	3.2488
13150.000000	85.898	-14.1859
13200.000000	85.624	-16.1842
13400.000000	84.460	-22.6928
13600.000000	83.259	-26.7534
13800.000000	82.220	-29.4127
14000.000000	81.368	-30.8050
14300.000000	80.255	-31.7759
14500.000000	79.761	-32.4616
14750.000000	79.356	-33.5167
15000.000000	79.141	-35.3460
15250.000000	79.231	-38.8288
15500.000000	79.432	-42.6088
15750.000000	79.755	-49.8399
16000.000000	80.151	-59.9591
16250.000000	80.494	-73.8914
16500.000000	80.377	-91.9765
16750.000000	79.488	-111.6889
17000.000000	78.079	-130.1151
17250.000000	76.317	-146.5464
17500.000000	74.330	-160.0430
17750.000000	72.619	-173.6938
18000.000000	71.020	173.5824
18250.000000	69.552	162.4341
18500.000000	67.744	146.3085
18750.000000	66.882	130.4129
19000.000000	65.861	115.1938
19250.000000	64.938	93.2319
19500.000000	63.295	67.5790
19750.000000	62.187	40.1057
