* Measurement data measured by REW V5.20.4
* Source: Headset (2- USB-C to 3.5mm Headphone Jack Adapter), MICROPHONE (Master Volume), R, volume: 0.250
* Format: 256k Log Swept Sine, 1 sweep at -6.0 dBFS with no timing reference
* Dated: 19 Sep, 2022 5:30:10 PM
* REW Settings:
*  C-weighting compensation: Off
*  Target level: 75.0 dB
* Note: 
* Measurement: CC L
* Smoothing: None
* Frequency Step: 1/48 octave
* Start Frequency: 20.300 Hz
*
* Freq(Hz)	SPL(dB)	Phase(degrees)
20.299999	82.105	-20.7250
20.600000	82.315	-22.0842
20.900000	82.527	-23.2544
21.200001	82.757	-24.3476
21.400000	82.925	-25.0600
21.799999	83.280	-26.5090
22.000000	83.459	-27.2688
22.400000	83.790	-28.8618
22.700001	83.997	-30.0552
23.000000	84.164	-31.1563
23.299999	84.306	-32.1174
23.600000	84.444	-32.9732
24.000000	84.656	-34.1254
24.299999	84.845	-35.1922
24.700001	85.119	-37.0453
25.000000	85.314	-38.7009
25.400000	85.531	-40.9675
25.799999	85.697	-42.8327
26.200001	85.851	-43.9713
26.500000	85.991	-44.3872
26.900000	86.233	-44.6625
27.200001	86.445	-44.9424
27.600000	86.739	-45.6667
28.000000	87.000	-46.8053
28.500000	87.257	-48.5100
29.000000	87.473	-50.1569
29.500000	87.696	-51.6396
30.000000	87.936	-53.0442
30.400000	88.127	-54.1515
30.700001	88.259	-54.9636
31.100000	88.416	-56.0055
31.500000	88.557	-57.0094
32.000000	88.723	-58.2713
32.500000	88.891	-59.6207
33.000000	89.066	-61.0750
33.500000	89.239	-62.5512
34.000000	89.408	-63.9126
34.500000	89.581	-65.0911
35.000000	89.756	-66.1629
35.500000	89.926	-67.2856
36.000000	90.081	-68.5294
36.500000	90.221	-69.8288
37.000000	90.366	-71.0965
37.500000	90.525	-72.3281
38.200001	90.736	-73.9591
38.700001	90.850	-74.8893
39.500000	91.025	-75.9049
40.000000	91.165	-76.6987
40.599998	91.330	-78.2303
41.200001	91.445	-80.0835
41.799999	91.536	-81.6452
42.500000	91.692	-82.9563
43.099998	91.856	-84.0581
43.700001	91.988	-85.2865
44.400002	92.092	-86.7057
45.000000	92.176	-87.8604
45.500000	92.259	-88.8183
46.200001	92.390	-90.1504
46.799999	92.505	-91.2803
47.500000	92.620	-92.5958
48.200001	92.715	-93.8293
48.700001	92.789	-94.6529
49.400002	92.908	-95.8462
50.000000	93.002	-96.9302
50.799999	93.098	-98.2906
51.500000	93.177	-99.4088
52.200001	93.258	-100.5904
53.000000	93.345	-101.9381
53.799999	93.432	-103.1963
54.500000	93.503	-104.2754
55.200001	93.570	-105.3103
56.000000	93.658	-106.4711
57.000000	93.755	-107.9729
58.000000	93.818	-109.3167
59.000000	93.896	-110.7276
60.000000	93.966	-112.2605
60.799999	94.019	-113.2882
61.500000	94.065	-114.1333
62.200001	94.101	-115.0845
63.000000	94.131	-116.2206
64.000000	94.194	-117.4629
65.000000	94.263	-118.4234
66.000000	94.325	-119.0860
67.000000	94.416	-120.2354
68.000000	94.458	-121.8656
69.000000	94.499	-123.0405
70.000000	94.571	-124.1379
71.000000	94.595	-125.3076
72.000000	94.611	-126.3807
73.000000	94.637	-127.4673
74.000000	94.665	-128.5042
75.000000	94.690	-129.5470
76.199997	94.708	-130.7564
77.500000	94.739	-131.9898
78.800003	94.756	-133.2122
80.000000	94.769	-134.2899
81.199997	94.777	-135.3871
82.500000	94.788	-136.5092
83.800003	94.792	-137.5915
85.000000	94.791	-138.5163
86.199997	94.793	-139.4743
87.500000	94.794	-140.5222
88.500000	94.785	-141.2692
90.000000	94.774	-142.3116
91.199997	94.766	-143.1797
92.500000	94.755	-144.0658
93.800003	94.739	-144.9428
95.000000	94.723	-145.7050
96.199997	94.708	-146.4022
97.500000	94.691	-147.2173
98.800003	94.669	-147.9888
100.000000	94.658	-148.6935
101.500000	94.622	-149.5094
103.000000	94.598	-150.2941
104.400002	94.570	-150.9710
106.000000	94.533	-151.7890
107.500000	94.507	-152.5165
109.000000	94.470	-153.1517
110.599998	94.430	-153.8559
112.000000	94.394	-154.4382
113.800003	94.351	-155.1387
115.000000	94.335	-155.5964
117.199997	94.265	-156.3246
118.000000	94.249	-156.6499
120.599998	94.191	-157.4476
122.000000	94.152	-157.9325
124.099998	94.112	-158.5651
125.000000	94.088	-158.8221
126.500000	94.052	-159.1928
128.000000	94.018	-159.6198
131.500000	93.929	-160.5195
132.000000	93.924	-160.5994
134.000000	93.879	-160.9949
136.000000	93.831	-161.4460
138.000000	93.794	-161.8081
140.000000	93.744	-162.1247
143.000000	93.686	-162.6381
145.000000	93.637	-162.9496
147.500000	93.599	-163.2656
150.000000	93.568	-163.6710
152.500000	93.510	-163.7932
155.000000	93.454	-164.3157
157.500000	93.410	-164.4250
160.000000	93.519	-164.1296
162.500000	93.301	-164.6193
165.000000	93.285	-164.9824
167.500000	93.235	-165.2325
170.000000	93.199	-165.3591
172.500000	93.180	-165.7576
175.000000	93.322	-165.3241
177.500000	93.144	-165.7743
180.000000	93.094	-165.8183
182.500000	93.084	-165.7778
185.000000	93.066	-165.9178
187.500000	93.047	-165.9957
190.000000	93.047	-166.1313
192.500000	93.037	-166.1697
195.000000	93.028	-166.2451
197.500000	93.010	-166.3525
200.000000	93.012	-166.4234
203.000000	93.003	-166.6122
206.000000	92.990	-166.7030
209.000000	92.985	-166.7684
212.000000	92.974	-166.8526
214.000000	92.972	-166.8810
218.000000	92.960	-166.9469
220.000000	92.948	-167.0255
224.000000	92.932	-167.1010
227.000000	92.924	-167.1120
230.000000	92.913	-167.1589
233.000000	92.906	-167.1637
236.000000	92.905	-167.1389
240.000000	92.903	-166.9272
243.000000	92.922	-167.0254
247.000000	92.945	-167.0298
250.000000	92.975	-167.0809
254.000000	92.991	-167.1819
258.000000	93.010	-167.3947
262.000000	93.021	-167.5389
265.000000	93.040	-167.7282
269.000000	93.045	-167.8811
272.000000	93.045	-168.1201
276.000000	93.046	-168.2909
280.000000	93.039	-168.2833
285.000000	93.037	-168.6664
290.000000	93.022	-168.8623
295.000000	93.008	-169.0805
300.000000	92.993	-169.2588
304.000000	92.980	-169.3269
307.000000	92.965	-169.4064
311.000000	92.948	-169.4829
315.000000	92.933	-169.5105
320.000000	92.916	-169.6715
325.000000	92.905	-169.5772
330.000000	92.903	-169.6198
335.000000	92.900	-169.6791
340.000000	92.910	-169.8200
345.000000	92.908	-169.8794
350.000000	92.897	-170.0677
355.000000	92.881	-170.2638
360.000000	92.874	-170.4075
365.000000	92.860	-170.4453
370.000000	92.840	-170.5603
375.000000	92.827	-170.6903
382.000000	92.790	-170.7940
387.000000	92.774	-170.8544
395.000000	92.733	-170.9314
400.000000	92.719	-170.9329
406.000000	92.686	-170.9502
412.000000	92.659	-170.9755
418.000000	92.633	-170.9916
425.000000	92.602	-170.9954
431.000000	92.574	-170.9939
437.000000	92.545	-170.9688
444.000000	92.511	-170.9481
450.000000	92.475	-170.8715
455.000000	92.452	-170.8588
462.000000	92.420	-170.8087
468.000000	92.392	-170.6994
475.000000	92.351	-170.6128
482.000000	92.319	-170.4965
487.000000	92.295	-170.4269
494.000000	92.267	-170.2840
500.000000	92.236	-170.1588
508.000000	92.206	-169.9939
515.000000	92.178	-169.8361
522.000000	92.149	-169.6710
530.000000	92.114	-169.4678
538.000000	92.087	-169.2255
545.000000	92.056	-169.0184
552.000000	92.029	-168.7913
560.000000	91.996	-168.5685
570.000000	91.963	-168.2120
580.000000	91.931	-167.8549
590.000000	91.893	-167.4761
600.000000	91.864	-167.1201
608.000000	91.838	-166.7677
615.000000	91.813	-166.4675
622.000000	91.787	-166.2010
630.000000	91.766	-165.8189
640.000000	91.737	-165.3729
650.000000	91.714	-164.9274
660.000000	91.677	-164.3997
670.000000	91.658	-163.9200
680.000000	91.644	-163.3930
690.000000	91.619	-162.9029
700.000000	91.595	-162.3224
710.000000	91.581	-161.8239
720.000000	91.567	-161.2605
730.000000	91.555	-160.6774
740.000000	91.547	-160.1230
750.000000	91.544	-159.5377
762.000000	91.543	-158.8140
775.000000	91.539	-158.0836
788.000000	91.544	-157.3015
800.000000	91.545	-156.6011
812.000000	91.563	-155.8826
825.000000	91.588	-155.1296
838.000000	91.609	-154.3477
850.000000	91.643	-153.6255
862.000000	91.668	-152.9768
875.000000	91.711	-152.2175
885.000000	91.746	-151.6521
900.000000	91.805	-150.8094
912.000000	91.851	-150.2251
925.000000	91.912	-149.5762
938.000000	91.972	-148.9130
950.000000	92.040	-148.3256
962.000000	92.099	-147.7962
975.000000	92.175	-147.2778
988.000000	92.252	-146.7605
1000.000000	92.325	-146.3416
1015.000000	92.426	-145.7822
1030.000000	92.520	-145.2902
1044.000000	92.608	-144.8750
1060.000000	92.716	-144.4174
1075.000000	92.811	-144.0537
1090.000000	92.891	-143.7048
1106.000000	92.974	-143.3730
1120.000000	93.048	-143.0992
1138.000000	93.137	-142.8079
1150.000000	93.192	-142.6304
1172.000000	93.300	-142.2823
1180.000000	93.334	-142.1766
1206.000000	93.450	-141.8568
1220.000000	93.529	-141.6988
1241.000000	93.665	-141.4847
1250.000000	93.722	-141.3776
1265.000000	93.814	-141.2434
1280.000000	93.906	-141.1055
1315.000000	94.114	-140.7941
1320.000000	94.142	-140.7702
1340.000000	94.258	-140.6122
1360.000000	94.421	-140.4643
1380.000000	94.539	-140.3300
1400.000000	94.664	-140.1923
1430.000000	94.845	-140.0695
1450.000000	94.969	-140.0566
1475.000000	95.113	-140.0635
1500.000000	95.262	-140.1697
1525.000000	95.397	-140.3692
1550.000000	95.493	-140.7124
1575.000000	95.559	-141.1705
1600.000000	95.586	-141.7628
1625.000000	95.562	-142.2997
1650.000000	95.473	-142.6448
1675.000000	95.345	-142.6203
1700.000000	95.208	-142.0060
1725.000000	95.094	-140.9601
1750.000000	95.037	-139.5960
1775.000000	95.048	-138.0394
1800.000000	95.111	-136.5100
1825.000000	95.208	-135.1846
1850.000000	95.330	-133.8750
1875.000000	95.477	-132.8053
1900.000000	95.626	-131.8154
1925.000000	95.789	-130.9634
1950.000000	95.947	-130.1756
1975.000000	96.115	-129.5137
2000.000000	96.289	-128.8717
2030.000000	96.479	-128.2032
2060.000000	96.680	-127.6327
2090.000000	96.879	-127.0897
2120.000000	97.080	-126.6410
2140.000000	97.213	-126.3600
2180.000000	97.482	-125.8742
2200.000000	97.618	-125.7141
2240.000000	97.888	-125.3331
2270.000000	98.090	-125.0992
2300.000000	98.306	-124.9596
2330.000000	98.507	-124.8047
2360.000000	98.724	-124.7486
2400.000000	99.017	-124.7711
2430.000000	99.248	-124.8877
2470.000000	99.550	-125.2180
2500.000000	99.775	-125.6401
2540.000000	100.053	-126.2406
2580.000000	100.321	-127.0014
2620.000000	100.579	-127.8631
2650.000000	100.756	-128.5920
2690.000000	100.990	-129.5932
2720.000000	101.151	-130.4290
2760.000000	101.356	-131.6284
2800.000000	101.536	-132.9021
2850.000000	101.750	-134.6104
2900.000000	101.919	-136.3743
2950.000000	102.063	-138.1692
3000.000000	102.170	-140.0461
3040.000000	102.229	-141.5513
3070.000000	102.261	-142.6761
3110.000000	102.285	-144.1282
3150.000000	102.287	-145.5151
3200.000000	102.266	-147.2049
3250.000000	102.225	-148.7108
3300.000000	102.160	-150.1117
3350.000000	102.078	-151.3719
3400.000000	101.993	-152.5079
3450.000000	101.897	-153.5078
3500.000000	101.799	-154.4381
3550.000000	101.689	-155.2405
3600.000000	101.568	-155.9177
3650.000000	101.444	-156.4949
3700.000000	101.310	-156.9478
3750.000000	101.180	-157.2357
3820.000000	100.999	-157.4562
3870.000000	100.877	-157.4562
3950.000000	100.699	-157.2541
4000.000000	100.595	-157.0261
4060.000000	100.489	-156.6505
4120.000000	100.394	-156.1909
4180.000000	100.309	-155.6502
4250.000000	100.229	-154.8606
4310.000000	100.184	-154.1793
4370.000000	100.166	-153.3961
4440.000000	100.169	-152.4179
4500.000000	100.195	-151.6290
4550.000000	100.242	-150.8945
4620.000000	100.328	-150.0643
4680.000000	100.425	-149.4368
4750.000000	100.545	-148.8052
4820.000000	100.695	-148.3494
4870.000000	100.802	-148.1769
4940.000000	100.944	-148.0774
5000.000000	101.057	-148.1255
5080.000000	101.188	-148.3466
5150.000000	101.287	-148.5047
5220.000000	101.373	-148.6336
5300.000000	101.475	-148.6685
5380.000000	101.604	-148.6150
5450.000000	101.735	-148.5780
5520.000000	101.884	-148.6097
5600.000000	102.073	-148.7512
5700.000000	102.334	-149.3320
5800.000000	102.640	-150.3292
5900.000000	102.955	-151.8167
6000.000000	103.277	-153.8769
6080.000000	103.526	-155.9869
6150.000000	103.726	-158.1857
6220.000000	103.897	-160.7889
6300.000000	104.038	-164.1999
6400.000000	104.088	-168.9946
6500.000000	103.957	-174.1068
6600.000000	103.627	-178.9952
6700.000000	103.137	176.8176
6800.000000	102.549	173.5426
6900.000000	101.951	171.3527
7000.000000	101.412	170.0266
7100.000000	100.918	169.4035
7200.000000	100.493	169.5366
7300.000000	100.141	169.9974
7400.000000	99.911	170.8447
7500.000000	99.833	171.7383
7620.000000	99.919	172.1610
7750.000000	100.233	171.0190
7880.000000	100.368	167.8495
8000.000000	100.390	163.2006
8120.000000	100.168	157.2389
8250.000000	99.582	150.2941
8380.000000	98.633	143.7615
8500.000000	97.463	139.0002
8620.000000	96.112	135.9690
8750.000000	94.502	134.9190
8850.000000	93.252	135.6669
9000.000000	91.488	139.4617
9120.000000	90.332	144.4151
9250.000000	89.399	150.8127
9380.000000	88.787	157.1636
9500.000000	88.495	162.2758
9620.000000	88.294	166.3909
9750.000000	88.157	169.9558
9880.000000	88.032	172.7809
10000.000000	87.905	174.7649
10150.000000	87.736	176.7841
10300.000000	87.517	178.7780
10440.000000	87.305	-179.4922
10600.000000	87.050	-177.5904
10750.000000	86.858	-175.8457
10900.000000	86.648	-174.0307
11060.000000	86.483	-172.2019
11200.000000	86.341	-170.6024
11380.000000	86.226	-168.5241
11500.000000	86.194	-167.1519
11720.000000	86.206	-164.9662
11800.000000	86.243	-164.3650
12060.000000	86.428	-162.4165
12200.000000	86.630	-161.9025
12410.000000	87.051	-161.6694
12500.000000	87.275	-161.7143
12650.000000	87.708	-162.4394
12800.000000	88.193	-164.0061
13150.000000	89.347	-171.0469
13200.000000	89.507	-172.3383
13400.000000	90.047	-179.5132
13600.000000	90.415	171.9471
13800.000000	90.515	162.4236
14000.000000	90.336	153.1840
14300.000000	89.760	141.0547
14500.000000	89.359	134.3796
14750.000000	88.942	127.2397
15000.000000	88.822	120.6729
15250.000000	89.077	113.3397
15500.000000	89.848	103.6234
15750.000000	91.130	87.6308
16000.000000	92.111	59.6607
16250.000000	90.791	23.0845
16500.000000	87.249	-4.7742
16750.000000	83.589	-21.6042
17000.000000	80.333	-32.8076
17250.000000	77.708	-42.6526
17500.000000	75.176	-50.3179
17750.000000	73.073	-59.3990
18000.000000	71.007	-68.3016
18250.000000	69.382	-82.1272
18500.000000	68.677	-92.0382
18750.000000	65.628	-125.3127
19000.000000	63.306	-114.7799
19250.000000	52.372	-175.5175
19500.000000	63.102	-30.6779
19750.000000	59.447	-55.6228
