* Measurement data measured by REW V5.20.4
* Source: Headset (2- USB-C to 3.5mm Headphone Jack Adapter), MICROPHONE (Master Volume), R, volume: 0.260
* Format: 256k Log Swept Sine, 1 sweep at -6.0 dBFS with no timing reference
* Dated: 21 Nov, 2022 9:10:38 PM
* REW Settings:
*  C-weighting compensation: Off
*  Target level: 75.0 dB
* Note: 
* Measurement: TE HEXA L
* Smoothing: None
* Frequency Step: 1/48 octave
* Start Frequency: 20.300 Hz
*
* Freq(Hz)	SPL(dB)	Phase(degrees)
20.299999	93.263	37.6738
20.600000	93.290	36.5232
20.900000	93.292	35.5349
21.200001	93.292	34.7091
21.400000	93.301	34.2560
21.799999	93.348	33.5105
22.000000	93.385	33.1662
22.400000	93.471	32.4133
22.700001	93.523	31.7470
23.000000	93.546	31.0117
23.299999	93.534	30.2738
23.600000	93.494	29.5906
24.000000	93.425	28.8130
24.299999	93.385	28.3025
24.700001	93.370	27.6113
25.000000	93.388	27.0010
25.400000	93.438	26.0154
25.799999	93.487	24.8974
26.200001	93.511	23.8012
26.500000	93.508	23.0893
26.900000	93.483	22.3542
27.200001	93.461	21.9573
27.600000	93.448	21.5595
28.000000	93.467	21.1740
28.500000	93.530	20.5244
29.000000	93.603	19.6364
29.500000	93.645	18.6465
30.000000	93.636	17.7765
30.400000	93.603	17.2533
30.700001	93.573	16.9492
31.100000	93.540	16.5758
31.500000	93.524	16.1336
32.000000	93.523	15.3879
32.500000	93.525	14.5004
33.000000	93.517	13.6821
33.500000	93.497	13.0670
34.000000	93.474	12.6159
34.500000	93.445	12.2083
35.000000	93.402	11.7966
35.500000	93.360	11.3928
36.000000	93.344	10.9477
36.500000	93.363	10.3355
37.000000	93.391	9.5067
37.500000	93.397	8.6037
38.200001	93.360	7.6462
38.700001	93.328	7.2828
39.500000	93.313	6.8336
40.000000	93.306	6.4057
40.599998	93.271	5.7734
41.200001	93.215	5.2341
41.799999	93.174	4.9056
42.500000	93.179	4.5884
43.099998	93.193	4.1320
43.700001	93.164	3.6149
44.400002	93.087	3.2614
45.000000	93.043	3.1022
45.500000	93.032	2.8201
46.200001	93.013	2.1504
46.799999	92.976	1.6097
47.500000	92.942	1.1939
48.200001	92.929	0.7764
48.700001	92.915	0.4104
49.400002	92.877	-0.0763
50.000000	92.843	-0.4042
50.799999	92.808	-0.7977
51.500000	92.781	-1.1742
52.200001	92.749	-1.5491
53.000000	92.708	-1.8961
53.799999	92.667	-2.1978
54.500000	92.623	-2.5133
55.200001	92.570	-2.8509
56.000000	92.518	-3.2066
57.000000	92.474	-3.6430
58.000000	92.429	-3.9964
59.000000	92.381	-4.2837
60.000000	92.328	-4.6538
60.799999	92.291	-4.9083
61.500000	92.269	-5.0936
62.200001	92.242	-5.3021
63.000000	92.194	-5.4885
64.000000	92.164	-5.6916
65.000000	92.146	-6.1700
66.000000	92.077	-6.4469
67.000000	92.023	-6.5628
68.000000	91.980	-7.0139
69.000000	91.935	-7.2651
70.000000	91.911	-7.2771
71.000000	91.845	-7.4791
72.000000	91.801	-7.6931
73.000000	91.789	-8.0703
74.000000	91.724	-8.0333
75.000000	91.688	-8.4878
76.199997	91.541	-9.4174
77.500000	91.601	-8.8034
78.800003	91.536	-8.8999
80.000000	91.473	-8.8788
81.199997	91.457	-9.2165
82.500000	91.419	-9.1376
83.800003	91.358	-9.3962
85.000000	91.322	-9.6779
86.199997	91.276	-9.7099
87.500000	91.222	-9.8004
88.500000	91.191	-9.8228
90.000000	91.144	-9.9445
91.199997	91.103	-10.0823
92.500000	91.067	-10.1602
93.800003	91.031	-10.2401
95.000000	90.984	-10.3048
96.199997	90.949	-10.3502
97.500000	90.918	-10.4545
98.800003	90.870	-10.4746
100.000000	90.834	-10.4643
101.500000	90.803	-10.5745
103.000000	90.766	-10.5975
104.400002	90.721	-10.6975
106.000000	90.681	-10.5989
107.500000	90.635	-10.6623
109.000000	90.610	-10.6483
110.599998	90.571	-10.6288
112.000000	90.534	-10.6341
113.800003	90.501	-10.6820
115.000000	90.473	-10.6915
117.199997	90.431	-10.6930
118.000000	90.415	-10.6931
120.599998	90.340	-10.7346
122.000000	90.326	-10.7271
124.099998	90.288	-10.7861
125.000000	90.269	-10.7688
126.500000	90.244	-10.7471
128.000000	90.211	-10.7427
131.500000	90.140	-10.7315
132.000000	90.131	-10.7003
134.000000	90.099	-10.6974
136.000000	90.067	-10.6519
138.000000	90.027	-10.6377
140.000000	89.993	-10.6060
143.000000	89.949	-10.5237
145.000000	89.910	-10.4568
147.500000	89.872	-10.3998
150.000000	89.840	-10.3819
152.500000	89.799	-10.2475
155.000000	89.757	-10.2299
157.500000	89.721	-10.1488
160.000000	89.672	-10.1797
162.500000	89.639	-9.9501
165.000000	89.601	-9.8748
167.500000	89.565	-9.7558
170.000000	89.526	-9.6757
172.500000	89.500	-9.5009
175.000000	89.471	-9.5141
177.500000	89.447	-9.4258
180.000000	89.424	-9.3585
182.500000	89.397	-9.2193
185.000000	89.375	-9.1421
187.500000	89.348	-9.0489
190.000000	89.325	-9.0049
192.500000	89.306	-8.9015
195.000000	89.284	-8.7884
197.500000	89.260	-8.6721
200.000000	89.258	-8.5709
203.000000	89.218	-8.4820
206.000000	89.202	-8.3717
209.000000	89.179	-8.2315
212.000000	89.164	-8.1539
214.000000	89.156	-8.0932
218.000000	89.115	-7.9411
220.000000	89.110	-7.8343
224.000000	89.072	-7.6819
227.000000	89.050	-7.5766
230.000000	89.029	-7.4590
233.000000	89.009	-7.3427
236.000000	88.989	-7.2346
240.000000	88.958	-7.0909
243.000000	88.942	-6.9732
247.000000	88.923	-6.7904
250.000000	88.897	-6.6690
254.000000	88.884	-6.5272
258.000000	88.862	-6.3706
262.000000	88.846	-6.2288
265.000000	88.832	-6.1109
269.000000	88.816	-5.9263
272.000000	88.803	-5.7794
276.000000	88.774	-5.6639
280.000000	88.752	-5.4672
285.000000	88.725	-5.3023
290.000000	88.705	-5.0854
295.000000	88.688	-4.8509
300.000000	88.665	-4.6329
304.000000	88.653	-4.4785
307.000000	88.645	-4.4782
311.000000	88.622	-4.2323
315.000000	88.604	-4.1362
320.000000	88.589	-3.9403
325.000000	88.562	-3.7997
330.000000	88.538	-3.5875
335.000000	88.512	-3.3820
340.000000	88.491	-3.2675
345.000000	88.477	-3.0836
350.000000	88.464	-2.8727
355.000000	88.442	-2.6802
360.000000	88.421	-2.4599
365.000000	88.411	-2.2771
370.000000	88.385	-2.1022
375.000000	88.373	-1.9054
382.000000	88.348	-1.6142
387.000000	88.332	-1.3959
395.000000	88.311	-1.0702
400.000000	88.293	-0.9034
406.000000	88.283	-0.6560
412.000000	88.273	-0.3863
418.000000	88.254	-0.1887
425.000000	88.238	0.0757
431.000000	88.220	0.3004
437.000000	88.215	0.4546
444.000000	88.191	0.7724
450.000000	88.174	0.9572
455.000000	88.151	1.1510
462.000000	88.137	1.3735
468.000000	88.118	1.6496
475.000000	88.100	1.8989
482.000000	88.086	2.1816
487.000000	88.069	2.3363
494.000000	88.058	2.6272
500.000000	88.041	2.8708
508.000000	88.022	3.1799
515.000000	88.009	3.4647
522.000000	87.991	3.7241
530.000000	87.978	4.0583
538.000000	87.962	4.4126
545.000000	87.950	4.7224
552.000000	87.931	5.0257
560.000000	87.918	5.3550
570.000000	87.905	5.7801
580.000000	87.888	6.2299
590.000000	87.871	6.7002
600.000000	87.855	7.1569
608.000000	87.848	7.5337
615.000000	87.836	7.8254
622.000000	87.824	8.1555
630.000000	87.813	8.5339
640.000000	87.799	9.0307
650.000000	87.790	9.5371
660.000000	87.776	10.0057
670.000000	87.768	10.5246
680.000000	87.760	11.0674
690.000000	87.753	11.5996
700.000000	87.746	12.1005
710.000000	87.746	12.6158
720.000000	87.742	13.1286
730.000000	87.747	13.6599
740.000000	87.748	14.2023
750.000000	87.751	14.7118
762.000000	87.760	15.3505
775.000000	87.774	16.0864
788.000000	87.789	16.7725
800.000000	87.802	17.3934
812.000000	87.825	18.0028
825.000000	87.848	18.7180
838.000000	87.886	19.3739
850.000000	87.916	19.9877
862.000000	87.950	20.5449
875.000000	87.996	21.1907
885.000000	88.032	21.6569
900.000000	88.091	22.3284
912.000000	88.140	22.8578
925.000000	88.196	23.3976
938.000000	88.253	23.9117
950.000000	88.316	24.3567
962.000000	88.374	24.7917
975.000000	88.446	25.1765
988.000000	88.519	25.5754
1000.000000	88.588	25.9453
1015.000000	88.673	26.3231
1030.000000	88.760	26.6910
1044.000000	88.842	26.9308
1060.000000	88.929	27.2315
1075.000000	89.008	27.4583
1090.000000	89.073	27.6773
1106.000000	89.140	27.8499
1120.000000	89.196	27.9936
1138.000000	89.260	28.1662
1150.000000	89.305	28.2409
1172.000000	89.376	28.4033
1180.000000	89.397	28.4555
1206.000000	89.474	28.5470
1220.000000	89.530	28.6460
1241.000000	89.624	28.7313
1250.000000	89.665	28.7822
1265.000000	89.730	28.8106
1280.000000	89.792	28.8822
1315.000000	89.926	29.0580
1320.000000	89.945	29.0946
1340.000000	90.018	29.1903
1360.000000	90.130	29.2864
1380.000000	90.203	29.4260
1400.000000	90.270	29.5810
1430.000000	90.368	29.8324
1450.000000	90.436	29.9939
1475.000000	90.520	30.2327
1500.000000	90.598	30.5119
1525.000000	90.679	30.7653
1550.000000	90.736	31.0794
1575.000000	90.790	31.3834
1600.000000	90.848	31.7055
1625.000000	90.905	32.0256
1650.000000	90.967	32.3418
1675.000000	91.031	32.7023
1700.000000	91.087	33.0340
1725.000000	91.157	33.3903
1750.000000	91.227	33.6951
1775.000000	91.303	34.0568
1800.000000	91.372	34.3795
1825.000000	91.448	34.7433
1850.000000	91.526	35.0509
1875.000000	91.610	35.3961
1900.000000	91.693	35.7116
1925.000000	91.781	36.0175
1950.000000	91.866	36.3266
1975.000000	91.954	36.6156
2000.000000	92.048	36.8988
2030.000000	92.159	37.1913
2060.000000	92.275	37.4768
2090.000000	92.396	37.7671
2120.000000	92.521	37.9897
2140.000000	92.603	38.1542
2180.000000	92.774	38.3691
2200.000000	92.864	38.4836
2240.000000	93.045	38.6252
2270.000000	93.181	38.6715
2300.000000	93.321	38.7069
2330.000000	93.463	38.6818
2360.000000	93.607	38.6087
2400.000000	93.803	38.4155
2430.000000	93.949	38.2301
2470.000000	94.146	37.9253
2500.000000	94.294	37.5841
2540.000000	94.492	37.0549
2580.000000	94.686	36.3888
2620.000000	94.873	35.6261
2650.000000	95.008	34.9830
2690.000000	95.181	33.9945
2720.000000	95.305	33.1630
2760.000000	95.459	31.9801
2800.000000	95.591	30.6779
2850.000000	95.734	28.9069
2900.000000	95.841	26.9866
2950.000000	95.913	24.9819
3000.000000	95.939	22.9535
3040.000000	95.925	21.3007
3070.000000	95.903	20.0885
3110.000000	95.846	18.4975
3150.000000	95.772	16.9978
3200.000000	95.647	15.2494
3250.000000	95.500	13.6165
3300.000000	95.335	12.1034
3350.000000	95.159	10.7194
3400.000000	94.960	9.4420
3450.000000	94.749	8.2827
3500.000000	94.519	7.2739
3550.000000	94.275	6.4030
3600.000000	94.019	5.7215
3650.000000	93.752	5.2597
3700.000000	93.484	5.0072
3750.000000	93.223	4.9708
3820.000000	92.883	5.2788
3870.000000	92.663	5.6696
3950.000000	92.352	6.4063
4000.000000	92.174	6.8874
4060.000000	91.977	7.5369
4120.000000	91.792	8.2447
4180.000000	91.610	9.0293
4250.000000	91.429	9.9911
4310.000000	91.296	10.8588
4370.000000	91.178	11.7902
4440.000000	91.066	12.7783
4500.000000	90.992	13.6178
4550.000000	90.939	14.2676
4620.000000	90.873	14.9933
4680.000000	90.821	15.6035
4750.000000	90.749	16.1296
4820.000000	90.677	16.6023
4870.000000	90.597	16.8992
4940.000000	90.471	17.3639
5000.000000	90.350	17.8894
5080.000000	90.192	18.7507
5150.000000	90.066	19.6730
5220.000000	89.946	20.6984
5300.000000	89.826	21.8437
5380.000000	89.724	23.1013
5450.000000	89.648	24.2223
5520.000000	89.569	25.3115
5600.000000	89.487	26.6359
5700.000000	89.400	28.3133
5800.000000	89.340	30.0150
5900.000000	89.309	31.7731
6000.000000	89.310	33.5416
6080.000000	89.326	34.9615
6150.000000	89.355	36.2744
6220.000000	89.409	37.4489
6300.000000	89.482	38.8527
6400.000000	89.612	40.5447
6500.000000	89.769	42.1319
6600.000000	89.967	43.6426
6700.000000	90.205	45.1189
6800.000000	90.497	46.3829
6900.000000	90.860	47.4563
7000.000000	91.326	48.3010
7100.000000	91.838	48.8464
7200.000000	92.407	48.9551
7300.000000	93.036	48.4727
7400.000000	93.715	47.4058
7500.000000	94.433	45.4777
7620.000000	95.313	41.7996
7750.000000	96.363	35.7376
7880.000000	97.005	26.8760
8000.000000	97.243	16.9468
8120.000000	97.020	6.4106
8250.000000	96.282	-4.0754
8380.000000	95.189	-12.3639
8500.000000	94.040	-17.8640
8620.000000	92.868	-21.5621
8750.000000	91.618	-23.9205
8850.000000	90.720	-24.7998
9000.000000	89.497	-25.2158
9120.000000	88.614	-24.8933
9250.000000	87.752	-24.1214
9380.000000	87.006	-23.0905
9500.000000	86.377	-21.9340
9620.000000	85.835	-20.6205
9750.000000	85.313	-19.2239
9880.000000	84.877	-17.8549
10000.000000	84.528	-16.7909
10150.000000	84.189	-15.2462
10300.000000	83.922	-14.3501
10440.000000	83.753	-13.4956
10600.000000	83.565	-13.1539
10750.000000	83.469	-13.3536
10900.000000	83.353	-13.9057
11060.000000	83.220	-14.9901
11200.000000	83.098	-15.9766
11380.000000	82.914	-17.7061
11500.000000	82.803	-18.3644
11720.000000	82.509	-20.3747
11800.000000	82.431	-20.9119
12060.000000	82.276	-22.5141
12200.000000	82.252	-23.5583
12410.000000	82.333	-25.6719
12500.000000	82.423	-26.7979
12650.000000	82.563	-28.8235
12800.000000	82.775	-31.2225
13150.000000	83.325	-38.4285
13200.000000	83.420	-39.6962
13400.000000	83.884	-45.3926
13600.000000	84.358	-52.4772
13800.000000	84.938	-61.1612
14000.000000	85.498	-71.8213
14300.000000	86.121	-91.2665
14500.000000	86.238	-106.7430
14750.000000	85.878	-127.7269
15000.000000	84.988	-148.1495
15250.000000	83.750	-167.0494
15500.000000	82.335	175.9936
15750.000000	80.900	160.5286
16000.000000	79.543	146.2232
16250.000000	78.206	132.7951
16500.000000	76.933	120.4728
16750.000000	75.694	110.4594
17000.000000	75.139	108.4421
17250.000000	77.359	100.3461
17500.000000	78.847	72.4509
17750.000000	78.662	46.0561
18000.000000	78.762	21.8945
18250.000000	79.150	-4.9446
18500.000000	79.748	-38.3979
18750.000000	80.072	-78.5001
19000.000000	79.706	-125.3746
19250.000000	78.325	-177.8347
19500.000000	75.817	127.1078
19750.000000	72.334	71.8311
