* Measurement data measured by REW V5.20.4
* Source: C:\Users\topge\Documents\crin to me.txt
* Format: Comma/Tab/Space delimited data
* Dated: 21 Feb, 2022 7:41:26 PM
* REW Settings:
*  C-weighting compensation: Off
*  Target level: 75.0 dB
* Note: Measurement imported from C:\Users\topge\Documents\crin to me.txt Format: Comma/Tab/Space delimited data 54518 values loaded, 2 Hz to 19,967 Hz
* Measurement: crin to me
* Smoothing: 1/24 octave
* Frequency Step: 1/48 octave
* Start Frequency: 24.000 Hz
*
* Freq(Hz)	SPL(dB)
24.000000	1.480
24.299999	1.310
24.700001	1.313
25.000000	1.262
25.400000	1.218
25.799999	1.169
26.200001	1.127
26.500000	1.104
26.900000	1.085
27.200001	1.076
27.600000	1.057
28.000000	1.024
28.500000	0.980
29.000000	0.948
29.500000	0.925
30.000000	0.914
30.400000	0.910
30.700001	0.915
31.100000	0.933
31.500000	0.957
32.000000	0.964
32.500000	0.933
33.000000	0.881
33.500000	0.831
34.000000	0.795
34.500000	0.776
35.000000	0.758
35.500000	0.732
36.000000	0.702
36.500000	0.673
37.000000	0.652
37.500000	0.646
38.200001	0.656
38.700001	0.655
39.500000	0.605
40.000000	0.556
40.599998	0.496
41.200001	0.442
41.799999	0.412
42.500000	0.435
43.099998	0.482
43.700001	0.512
44.400002	0.518
45.000000	0.483
45.500000	0.417
46.200001	0.305
46.799999	0.240
47.500000	0.216
48.200001	0.226
48.700001	0.238
49.400002	0.235
50.000000	0.205
50.799999	0.151
51.500000	0.128
52.200001	0.131
53.000000	0.134
53.799999	0.130
54.500000	0.125
55.200001	0.103
56.000000	0.060
57.000000	0.024
58.000000	0.034
59.000000	0.093
60.000000	0.161
60.799999	0.198
61.500000	0.215
62.200001	0.212
63.000000	0.188
64.000000	0.155
65.000000	0.143
66.000000	0.145
67.000000	0.146
68.000000	0.151
69.000000	0.154
70.000000	0.140
71.000000	0.099
72.000000	0.044
73.000000	0.031
74.000000	0.085
75.000000	0.156
76.199997	0.185
77.500000	0.151
78.800003	0.111
80.000000	0.087
81.199997	0.071
82.500000	0.036
83.800003	-0.028
85.000000	-0.093
86.199997	-0.117
87.500000	-0.049
88.500000	0.046
90.000000	0.144
91.199997	0.155
92.500000	0.123
93.800003	0.060
95.000000	-0.013
96.199997	-0.055
97.500000	-0.027
98.800003	0.045
100.000000	0.107
101.500000	0.143
103.000000	0.129
104.400002	0.113
106.000000	0.106
107.500000	0.088
109.000000	0.064
110.599998	0.035
112.000000	-0.010
113.800003	-0.073
115.000000	-0.090
117.199997	-0.064
118.000000	-0.046
120.599998	-0.001
122.000000	0.009
124.099998	0.022
125.000000	0.035
126.500000	0.069
128.000000	0.096
131.500000	0.087
132.000000	0.083
134.000000	0.062
136.000000	0.031
138.000000	-0.003
140.000000	-0.027
143.000000	0.036
145.000000	0.101
147.500000	0.122
150.000000	0.116
152.500000	0.110
155.000000	0.107
157.500000	0.080
160.000000	0.038
162.500000	0.041
165.000000	0.067
167.500000	0.086
170.000000	0.090
172.500000	0.069
175.000000	0.055
177.500000	0.074
180.000000	0.088
182.500000	0.079
185.000000	0.055
187.500000	0.016
190.000000	-0.039
192.500000	-0.079
195.000000	-0.090
197.500000	-0.113
200.000000	-0.153
203.000000	-0.160
206.000000	-0.108
209.000000	-0.059
212.000000	-0.037
214.000000	-0.024
218.000000	0.026
220.000000	0.056
224.000000	0.071
227.000000	0.057
230.000000	0.050
233.000000	0.044
236.000000	0.036
240.000000	0.039
243.000000	0.053
247.000000	0.086
250.000000	0.099
254.000000	0.091
258.000000	0.078
262.000000	0.070
265.000000	0.071
269.000000	0.082
272.000000	0.091
276.000000	0.103
280.000000	0.110
285.000000	0.096
290.000000	0.068
295.000000	0.030
300.000000	-0.016
304.000000	-0.051
307.000000	-0.072
311.000000	-0.087
315.000000	-0.088
320.000000	-0.083
325.000000	-0.067
330.000000	-0.042
335.000000	-0.033
340.000000	-0.027
345.000000	-0.023
350.000000	-0.021
355.000000	-0.005
360.000000	0.018
365.000000	0.016
370.000000	-0.003
375.000000	-0.016
382.000000	-0.008
387.000000	-0.015
395.000000	-0.030
400.000000	-0.023
406.000000	-0.011
412.000000	-0.011
418.000000	-0.011
425.000000	0.003
431.000000	-0.007
437.000000	-0.034
444.000000	-0.032
450.000000	-0.003
455.000000	0.027
462.000000	0.057
468.000000	0.050
475.000000	0.012
482.000000	-0.004
487.000000	0.000
494.000000	0.004
500.000000	-0.001
508.000000	-0.010
515.000000	-0.018
522.000000	-0.026
530.000000	-0.034
538.000000	-0.041
545.000000	-0.044
552.000000	-0.035
560.000000	-0.005
570.000000	0.006
580.000000	-0.032
590.000000	-0.028
600.000000	-0.003
608.000000	0.012
615.000000	0.020
622.000000	0.020
630.000000	0.012
640.000000	-0.003
650.000000	-0.019
660.000000	-0.029
670.000000	-0.016
680.000000	0.017
690.000000	0.034
700.000000	0.033
710.000000	0.028
720.000000	0.023
730.000000	0.019
740.000000	0.026
750.000000	0.048
762.000000	0.068
775.000000	0.065
788.000000	0.075
800.000000	0.063
812.000000	0.041
825.000000	0.053
838.000000	0.074
850.000000	0.098
862.000000	0.135
875.000000	0.175
885.000000	0.192
900.000000	0.216
912.000000	0.245
925.000000	0.263
938.000000	0.271
950.000000	0.285
962.000000	0.296
975.000000	0.289
988.000000	0.291
1000.000000	0.307
1015.000000	0.317
1030.000000	0.316
1044.000000	0.309
1060.000000	0.280
1075.000000	0.208
1090.000000	0.135
1106.000000	0.070
1120.000000	0.019
1138.000000	-0.023
1150.000000	-0.062
1172.000000	-0.195
1180.000000	-0.262
1206.000000	-0.447
1220.000000	-0.508
1241.000000	-0.575
1250.000000	-0.596
1265.000000	-0.652
1280.000000	-0.730
1315.000000	-0.866
1320.000000	-0.887
1340.000000	-0.954
1360.000000	-0.998
1380.000000	-1.033
1400.000000	-1.064
1430.000000	-1.055
1450.000000	-1.075
1475.000000	-1.119
1500.000000	-1.146
1525.000000	-1.171
1550.000000	-1.182
1575.000000	-1.161
1600.000000	-1.148
1625.000000	-1.168
1650.000000	-1.178
1675.000000	-1.183
1700.000000	-1.188
1725.000000	-1.181
1750.000000	-1.174
1775.000000	-1.170
1800.000000	-1.142
1825.000000	-1.141
1850.000000	-1.163
1875.000000	-1.155
1900.000000	-1.128
1925.000000	-1.097
1950.000000	-1.070
1975.000000	-1.050
2000.000000	-1.038
2030.000000	-1.011
2060.000000	-0.973
2090.000000	-0.947
2120.000000	-0.916
2140.000000	-0.899
2180.000000	-0.887
2200.000000	-0.890
2240.000000	-0.872
2270.000000	-0.841
2300.000000	-0.851
2330.000000	-0.874
2360.000000	-0.882
2400.000000	-0.892
2430.000000	-0.905
2470.000000	-0.917
2500.000000	-0.907
2540.000000	-0.920
2580.000000	-0.934
2620.000000	-0.936
2650.000000	-0.926
2690.000000	-0.916
2720.000000	-0.920
2760.000000	-0.924
2800.000000	-0.943
2850.000000	-0.971
2900.000000	-0.972
2950.000000	-0.967
3000.000000	-0.977
3040.000000	-0.978
3070.000000	-0.980
3110.000000	-0.990
3150.000000	-0.994
3200.000000	-0.983
3250.000000	-0.985
3300.000000	-0.985
3350.000000	-0.988
3400.000000	-1.000
3450.000000	-1.005
3500.000000	-0.981
3550.000000	-0.941
3600.000000	-0.940
3650.000000	-0.937
3700.000000	-0.913
3750.000000	-0.886
3820.000000	-0.824
3870.000000	-0.774
3950.000000	-0.701
4000.000000	-0.654
4060.000000	-0.593
4120.000000	-0.541
4180.000000	-0.496
4250.000000	-0.461
4310.000000	-0.423
4370.000000	-0.378
4440.000000	-0.314
4500.000000	-0.252
4550.000000	-0.214
4620.000000	-0.183
4680.000000	-0.155
4750.000000	-0.113
4820.000000	-0.081
4870.000000	-0.076
4940.000000	-0.074
5000.000000	-0.067
5080.000000	-0.074
5150.000000	-0.098
5220.000000	-0.114
5300.000000	-0.129
5380.000000	-0.188
5450.000000	-0.249
5520.000000	-0.308
5600.000000	-0.393
5700.000000	-0.506
5800.000000	-0.594
5900.000000	-0.650
6000.000000	-0.728
6080.000000	-0.779
6150.000000	-0.772
6220.000000	-0.717
6300.000000	-0.602
6400.000000	-0.401
6500.000000	-0.164
6600.000000	0.050
6700.000000	0.220
6800.000000	0.416
6900.000000	0.670
7000.000000	0.963
