* Measurement data measured by REW V5.20.4
* Source: Headset (2- USB-C to 3.5mm Headphone Jack Adapter), MICROPHONE (Master Volume), R, volume: 0.540
* Format: 256k Log Swept Sine, 1 sweep at -6.0 dBFS with no timing reference
* Dated: 27 Sep, 2022 2:53:56 PM
* REW Settings:
*  C-weighting compensation: Off
*  Target level: 75.0 dB
* Note: 
* Measurement: S12 R
* Smoothing: None
* Frequency Step: 1/48 octave
* Start Frequency: 20.300 Hz
*
* Freq(Hz)	SPL(dB)	Phase(degrees)
20.299999	107.519	31.4500
20.600000	107.504	30.7227
20.900000	107.476	30.1337
21.200001	107.458	29.5473
21.400000	107.455	29.1155
21.799999	107.467	28.1277
22.000000	107.479	27.5794
22.400000	107.505	26.4499
22.700001	107.525	25.6648
23.000000	107.547	24.9986
23.299999	107.576	24.4517
23.600000	107.611	23.9875
24.000000	107.665	23.4159
24.299999	107.701	22.9697
24.700001	107.733	22.3295
25.000000	107.742	21.8260
25.400000	107.740	21.1417
25.799999	107.733	20.4432
26.200001	107.730	19.7200
26.500000	107.732	19.1678
26.900000	107.740	18.4485
27.200001	107.748	17.9503
27.600000	107.769	17.3655
28.000000	107.799	16.8630
28.500000	107.843	16.2848
29.000000	107.884	15.6645
29.500000	107.909	14.9370
30.000000	107.912	14.1042
30.400000	107.901	13.4215
30.700001	107.885	12.9475
31.100000	107.862	12.4232
31.500000	107.846	12.0369
32.000000	107.843	11.6748
32.500000	107.856	11.2938
33.000000	107.868	10.7862
33.500000	107.869	10.1603
34.000000	107.868	9.4672
34.500000	107.874	8.7471
35.000000	107.875	8.0571
35.500000	107.861	7.4948
36.000000	107.834	7.1098
36.500000	107.806	6.8246
37.000000	107.790	6.4788
37.500000	107.789	5.9770
38.200001	107.812	5.0759
38.700001	107.842	4.4220
39.500000	107.882	3.6329
40.000000	107.888	3.3644
40.599998	107.879	3.1319
41.200001	107.853	2.7345
41.799999	107.807	2.1266
42.500000	107.753	1.3961
43.099998	107.740	0.8442
43.700001	107.743	0.3014
44.400002	107.730	-0.2281
45.000000	107.715	-0.5316
45.500000	107.713	-0.8147
46.200001	107.701	-1.4042
46.799999	107.666	-1.9344
47.500000	107.623	-2.3940
48.200001	107.601	-2.8528
48.700001	107.586	-3.2407
49.400002	107.561	-3.7509
50.000000	107.546	-4.1160
50.799999	107.533	-4.6004
51.500000	107.508	-5.0349
52.200001	107.473	-5.4503
53.000000	107.432	-5.8981
53.799999	107.405	-6.3297
54.500000	107.389	-6.7469
55.200001	107.362	-7.1593
56.000000	107.323	-7.5230
57.000000	107.286	-7.9497
58.000000	107.245	-8.5299
59.000000	107.175	-9.0928
60.000000	107.114	-9.4206
60.799999	107.095	-9.7673
61.500000	107.066	-10.0977
62.200001	107.033	-10.2874
63.000000	107.012	-10.5454
64.000000	106.958	-11.0685
65.000000	106.916	-11.4592
66.000000	106.899	-11.8122
67.000000	106.874	-11.8514
68.000000	106.860	-12.1818
69.000000	106.787	-12.8749
70.000000	106.732	-13.3416
71.000000	106.694	-13.8290
72.000000	106.629	-14.1306
73.000000	106.594	-14.4081
74.000000	106.555	-14.7890
75.000000	106.500	-15.0104
76.199997	106.441	-15.3831
77.500000	106.378	-15.8747
78.800003	106.338	-16.2290
80.000000	106.286	-16.5084
81.199997	106.236	-16.7578
82.500000	106.169	-17.1874
83.800003	106.106	-17.3999
85.000000	106.059	-17.8143
86.199997	105.993	-18.1000
87.500000	105.949	-18.2824
88.500000	105.912	-18.3957
90.000000	105.837	-18.7195
91.199997	105.780	-18.9907
92.500000	105.713	-19.1557
93.800003	105.677	-19.4603
95.000000	105.617	-19.8782
96.199997	105.562	-19.9853
97.500000	105.523	-20.0480
98.800003	105.457	-20.3442
100.000000	105.390	-20.5276
101.500000	105.332	-20.7190
103.000000	105.271	-20.9231
104.400002	105.213	-21.0861
106.000000	105.139	-21.2778
107.500000	105.076	-21.3060
109.000000	105.014	-21.5471
110.599998	104.951	-21.6451
112.000000	104.899	-21.6946
113.800003	104.834	-21.8902
115.000000	104.787	-22.0726
117.199997	104.702	-22.3166
118.000000	104.677	-22.2979
120.599998	104.554	-22.5382
122.000000	104.489	-22.6357
124.099998	104.434	-22.9003
125.000000	104.414	-22.9206
126.500000	104.336	-22.6887
128.000000	104.311	-23.2365
131.500000	104.199	-22.5657
132.000000	104.190	-22.8529
134.000000	104.081	-22.8022
136.000000	103.908	-22.7820
138.000000	103.939	-23.8198
140.000000	103.877	-23.3501
143.000000	103.826	-23.2454
145.000000	103.705	-23.7037
147.500000	103.545	-23.6938
150.000000	103.409	-23.5889
152.500000	103.378	-23.5982
155.000000	103.417	-23.5700
157.500000	103.365	-23.3427
160.000000	103.205	-23.4146
162.500000	103.102	-23.5909
165.000000	103.022	-23.4143
167.500000	102.954	-23.3037
170.000000	102.845	-23.3226
172.500000	102.784	-23.2129
175.000000	102.688	-23.0986
177.500000	102.607	-22.9741
180.000000	102.539	-22.9509
182.500000	102.455	-22.8149
185.000000	102.369	-22.6009
187.500000	102.278	-22.2514
190.000000	102.184	-22.0978
192.500000	102.118	-21.7476
195.000000	102.045	-21.2442
197.500000	101.978	-20.4043
200.000000	101.946	-20.1490
203.000000	101.964	-19.5312
206.000000	102.004	-19.1447
209.000000	102.046	-19.0984
212.000000	102.042	-19.3293
214.000000	101.998	-19.4481
218.000000	101.936	-19.4638
220.000000	101.904	-19.6293
224.000000	101.838	-19.6105
227.000000	101.770	-19.6159
230.000000	101.684	-19.5054
233.000000	101.604	-19.4392
236.000000	101.588	-19.2795
240.000000	101.476	-18.9876
243.000000	101.466	-19.1401
247.000000	101.324	-18.3308
250.000000	101.363	-18.3747
254.000000	101.249	-18.3980
258.000000	101.172	-18.0437
262.000000	101.094	-17.7288
265.000000	101.068	-17.3031
269.000000	101.028	-16.9057
272.000000	100.933	-16.7273
276.000000	100.849	-16.6672
280.000000	100.829	-16.5390
285.000000	100.732	-15.7542
290.000000	100.647	-15.5580
295.000000	100.569	-14.9003
300.000000	100.518	-14.5976
304.000000	100.458	-14.4644
307.000000	100.427	-14.2166
311.000000	100.358	-13.7866
315.000000	100.330	-13.3267
320.000000	100.260	-12.9318
325.000000	100.186	-12.4761
330.000000	100.134	-12.1513
335.000000	100.107	-11.5206
340.000000	100.062	-11.0536
345.000000	99.995	-10.6447
350.000000	99.966	-10.3943
355.000000	99.953	-9.9717
360.000000	99.879	-9.2458
365.000000	99.872	-9.1778
370.000000	99.782	-8.6739
375.000000	99.763	-8.1786
382.000000	99.675	-7.7708
387.000000	99.657	-7.3597
395.000000	99.605	-6.5362
400.000000	99.568	-5.9490
406.000000	99.508	-5.4666
412.000000	99.488	-5.0851
418.000000	99.451	-4.4625
425.000000	99.401	-3.8918
431.000000	99.362	-3.3760
437.000000	99.318	-2.8347
444.000000	99.298	-2.2537
450.000000	99.257	-1.7561
455.000000	99.249	-1.2548
462.000000	99.197	-0.6348
468.000000	99.167	-0.3221
475.000000	99.141	0.2946
482.000000	99.103	0.9746
487.000000	99.091	1.4003
494.000000	99.091	1.9269
500.000000	99.060	2.4899
508.000000	99.022	3.1832
515.000000	99.010	3.7658
522.000000	98.989	4.3214
530.000000	98.976	4.9991
538.000000	98.953	5.7568
545.000000	98.938	6.3272
552.000000	98.929	6.8119
560.000000	98.923	7.4145
570.000000	98.914	8.2807
580.000000	98.889	9.1511
590.000000	98.888	10.0000
600.000000	98.866	10.7889
608.000000	98.868	11.4906
615.000000	98.860	11.9980
622.000000	98.867	12.6374
630.000000	98.862	13.1877
640.000000	98.855	14.1629
650.000000	98.862	14.9228
660.000000	98.857	15.6274
670.000000	98.867	16.4377
680.000000	98.893	17.2571
690.000000	98.882	18.1018
700.000000	98.898	18.8812
710.000000	98.900	19.6890
720.000000	98.945	20.4821
730.000000	98.941	21.1326
740.000000	98.927	22.0830
750.000000	98.967	23.0160
762.000000	99.008	23.7396
775.000000	99.069	24.8048
788.000000	99.051	25.9559
800.000000	99.117	26.4735
812.000000	99.197	27.8435
825.000000	99.263	29.1135
838.000000	99.174	29.4795
850.000000	99.355	30.2032
862.000000	99.408	31.0866
875.000000	99.448	31.9998
885.000000	99.511	32.4118
900.000000	99.609	33.7289
912.000000	99.702	34.3055
925.000000	99.753	35.0623
938.000000	99.830	35.9389
950.000000	99.930	36.6393
962.000000	100.000	37.2726
975.000000	100.089	37.7206
988.000000	100.256	38.7493
1000.000000	100.327	37.7909
1015.000000	100.398	40.0789
1030.000000	100.534	40.0574
1044.000000	100.732	39.9210
1060.000000	100.759	41.4512
1075.000000	100.596	42.4373
1090.000000	101.146	40.4978
1106.000000	101.085	43.0886
1120.000000	101.162	43.6122
1138.000000	101.295	44.0852
1150.000000	101.373	44.3170
1172.000000	101.485	45.1444
1180.000000	101.553	45.3022
1206.000000	101.696	45.3851
1220.000000	101.771	46.2062
1241.000000	101.910	46.8695
1250.000000	102.042	46.8756
1265.000000	102.117	47.2726
1280.000000	102.384	47.5664
1315.000000	102.669	48.5503
1320.000000	102.648	47.9711
1340.000000	102.801	49.2917
1360.000000	103.063	49.3027
1380.000000	103.234	49.3162
1400.000000	103.455	49.7063
1430.000000	103.663	50.2330
1450.000000	103.871	50.3624
1475.000000	104.064	50.7766
1500.000000	104.373	51.0845
1525.000000	104.523	51.1567
1550.000000	104.771	52.0853
1575.000000	104.949	51.9618
1600.000000	105.220	52.2292
1625.000000	105.546	52.0587
1650.000000	105.839	52.3475
1675.000000	105.957	52.6317
1700.000000	106.225	52.2870
1725.000000	106.503	52.4897
1750.000000	106.798	52.0107
1775.000000	107.111	51.4579
1800.000000	107.421	50.9325
1825.000000	107.748	50.1086
1850.000000	108.074	48.8504
1875.000000	108.345	47.4307
1900.000000	108.668	45.6182
1925.000000	108.947	43.5805
1950.000000	109.188	41.1478
1975.000000	109.347	38.3521
2000.000000	109.455	34.9681
2030.000000	109.385	30.7523
2060.000000	109.030	26.9470
2090.000000	108.469	25.1066
2120.000000	107.992	25.6488
2140.000000	107.814	26.4787
2180.000000	107.753	27.8255
2200.000000	107.813	27.9967
2240.000000	107.946	27.5054
2270.000000	108.005	26.6112
2300.000000	108.021	25.6243
2330.000000	108.018	24.6426
2360.000000	108.017	23.7973
2400.000000	108.037	22.3627
2430.000000	108.023	20.9318
2470.000000	107.908	18.9410
2500.000000	107.761	17.6863
2540.000000	107.535	16.3484
2580.000000	107.309	15.1743
2620.000000	107.046	14.3693
2650.000000	106.825	13.6977
2690.000000	106.503	13.3036
2720.000000	106.237	13.3864
2760.000000	105.882	14.2813
2800.000000	105.640	16.0880
2850.000000	105.587	18.4597
2900.000000	105.658	19.5539
2950.000000	105.697	19.9976
3000.000000	105.751	20.2401
3040.000000	105.774	19.9563
3070.000000	105.749	19.5773
3110.000000	105.660	19.1955
3150.000000	105.540	19.0229
3200.000000	105.385	19.0828
3250.000000	105.232	19.3694
3300.000000	105.091	19.8191
3350.000000	104.970	20.3694
3400.000000	104.858	20.9574
3450.000000	104.762	21.6562
3500.000000	104.681	22.3880
3550.000000	104.606	23.1521
3600.000000	104.544	23.9392
3650.000000	104.498	24.7670
3700.000000	104.468	25.6031
3750.000000	104.450	26.3500
3820.000000	104.431	27.2926
3870.000000	104.404	27.9064
3950.000000	104.339	29.2894
4000.000000	104.354	30.3993
4060.000000	104.421	31.5096
4120.000000	104.513	32.3536
4180.000000	104.612	32.9618
4250.000000	104.702	33.4081
4310.000000	104.758	34.1862
4370.000000	104.942	35.0678
4440.000000	105.232	35.2325
4500.000000	105.475	34.6259
4550.000000	105.660	33.5189
4620.000000	105.810	30.9798
4680.000000	105.724	28.1592
4750.000000	105.350	25.8047
4820.000000	104.875	24.5788
4870.000000	104.446	24.8217
4940.000000	104.010	26.4147
5000.000000	103.683	27.1083
5080.000000	102.780	29.0163
5150.000000	101.979	38.1850
5220.000000	102.893	49.2814
5300.000000	104.393	50.7168
5380.000000	105.180	48.5421
5450.000000	105.580	46.5642
5520.000000	105.830	44.6881
5600.000000	106.012	42.6733
5700.000000	106.140	40.3348
5800.000000	106.155	37.9918
5900.000000	106.044	35.8516
6000.000000	105.853	34.4999
6080.000000	105.685	33.6916
6150.000000	105.515	33.2276
6220.000000	105.328	33.1258
6300.000000	105.130	33.4917
6400.000000	104.953	34.5170
6500.000000	104.873	35.8513
6600.000000	104.887	36.7632
6700.000000	104.818	37.4723
6800.000000	104.746	39.1440
6900.000000	104.833	40.9486
7000.000000	104.959	43.1370
7100.000000	105.250	45.6856
7200.000000	105.597	48.3801
7300.000000	106.094	52.1905
7400.000000	107.104	57.3063
7500.000000	109.087	59.2143
7620.000000	111.355	49.1268
7750.000000	112.290	33.4850
7880.000000	111.528	21.0871
8000.000000	111.194	21.5635
8120.000000	112.248	15.4194
8250.000000	112.540	1.1068
8380.000000	111.699	-13.0149
8500.000000	110.314	-22.3755
8620.000000	108.779	-27.5789
8750.000000	107.265	-29.7219
8850.000000	106.341	-30.1786
9000.000000	105.171	-30.9163
9120.000000	104.306	-31.1677
9250.000000	103.472	-30.9947
9380.000000	102.772	-30.7015
9500.000000	102.192	-30.6563
9620.000000	101.691	-30.4596
9750.000000	101.300	-31.4297
9880.000000	100.611	-34.5963
10000.000000	99.395	-34.2599
10150.000000	98.885	-28.3213
10300.000000	99.022	-27.5642
10440.000000	98.993	-29.7677
10600.000000	98.671	-33.6204
10750.000000	98.138	-37.1833
10900.000000	97.452	-40.0101
11060.000000	96.758	-41.9120
11200.000000	96.276	-43.9198
11380.000000	95.515	-47.3990
11500.000000	94.913	-49.2809
11720.000000	93.909	-51.5490
11800.000000	93.624	-52.5142
12060.000000	92.563	-59.6310
12200.000000	91.249	-65.1583
12410.000000	88.076	-62.6344
12500.000000	87.133	-55.0740
12650.000000	86.864	-42.2927
12800.000000	87.361	-34.0530
13150.000000	89.084	-24.5850
13200.000000	89.375	-23.9519
13400.000000	90.649	-23.1603
13600.000000	92.017	-25.0906
13800.000000	93.468	-29.8476
14000.000000	94.840	-37.4718
14300.000000	96.348	-54.5548
14500.000000	96.511	-67.1999
14750.000000	96.101	-77.5603
15000.000000	96.373	-81.3563
15250.000000	98.107	-88.8790
15500.000000	99.632	-107.1877
15750.000000	100.150	-127.2584
16000.000000	100.569	-146.3553
16250.000000	101.174	-168.4942
16500.000000	101.446	163.4858
16750.000000	100.701	131.6996
17000.000000	98.925	101.0286
17250.000000	96.463	73.4977
17500.000000	93.580	51.8999
17750.000000	91.595	35.5344
18000.000000	90.451	15.0307
18250.000000	89.338	-9.8661
18500.000000	88.249	-37.2399
18750.000000	87.349	-67.5486
19000.000000	86.576	-101.7985
19250.000000	85.808	-141.4716
19500.000000	84.709	173.9868
19750.000000	82.900	126.3380
