* Measurement data measured by REW V5.20.4
* Source: Headset (2- USB-C to 3.5mm Headphone Jack Adapter), MICROPHONE (Master Volume), R, volume: 0.630
* Format: 256k Log Swept Sine, 1 sweep at -6.0 dBFS with no timing reference
* Dated: 10 Sep, 2022 5:33:44 PM
* REW Settings:
*  C-weighting compensation: Off
*  Target level: 75.0 dB
* Note: 
* Measurement: Vari S2 R
* Smoothing: None
* Frequency Step: 1/48 octave
* Start Frequency: 20.300 Hz
*
* Freq(Hz)	SPL(dB)	Phase(degrees)
20.299999	96.310	18.8771
20.600000	96.357	18.5016
20.900000	96.378	18.0018
21.200001	96.416	17.4571
21.400000	96.461	17.0329
21.799999	96.593	15.9547
22.000000	96.667	15.2786
22.400000	96.794	13.6825
22.700001	96.846	12.3717
23.000000	96.851	11.0633
23.299999	96.812	9.8071
23.600000	96.738	8.6247
24.000000	96.610	7.1962
24.299999	96.514	6.2791
24.700001	96.419	5.3257
25.000000	96.394	4.8118
25.400000	96.436	4.2889
25.799999	96.533	3.7555
26.200001	96.619	3.1257
26.500000	96.642	2.6713
26.900000	96.604	2.2660
27.200001	96.544	2.1827
27.600000	96.472	2.2700
28.000000	96.444	2.2409
28.500000	96.449	1.5821
29.000000	96.425	0.3726
29.500000	96.349	-0.7290
30.000000	96.296	-1.3366
30.400000	96.323	-1.7088
30.700001	96.381	-2.1484
31.100000	96.474	-3.0995
31.500000	96.544	-4.3659
32.000000	96.566	-5.9276
32.500000	96.529	-6.9107
33.000000	96.492	-7.1233
33.500000	96.497	-6.9292
34.000000	96.536	-6.9805
34.500000	96.551	-7.6416
35.000000	96.489	-8.6964
35.500000	96.376	-9.5978
36.000000	96.302	-10.0883
36.500000	96.319	-10.4681
37.000000	96.377	-11.1303
37.500000	96.379	-11.9276
38.200001	96.250	-12.2462
38.700001	96.152	-11.7292
39.500000	96.087	-11.3097
40.000000	96.025	-11.9784
40.599998	95.898	-13.4100
41.200001	95.815	-14.9008
41.799999	95.853	-16.1562
42.500000	95.976	-17.1108
43.099998	96.019	-17.3043
43.700001	95.954	-17.0976
44.400002	95.768	-17.0585
45.000000	95.576	-17.5647
45.500000	95.467	-18.1274
46.200001	95.511	-18.7387
46.799999	95.702	-19.3953
47.500000	95.821	-20.6169
48.200001	95.658	-21.3173
48.700001	95.494	-21.0554
49.400002	95.444	-20.6509
50.000000	95.512	-21.3736
50.799999	95.480	-23.0138
51.500000	95.326	-23.5557
52.200001	95.215	-23.3736
53.000000	95.212	-23.6325
53.799999	95.180	-24.6814
54.500000	95.038	-24.9129
55.200001	94.967	-24.2809
56.000000	95.012	-25.0148
57.000000	94.855	-27.3576
58.000000	94.919	-26.7966
59.000000	95.050	-26.6267
60.000000	94.655	-26.2840
60.799999	94.489	-26.6721
61.500000	94.530	-28.2470
62.200001	94.634	-29.5394
63.000000	94.691	-30.5974
64.000000	94.364	-32.6060
65.000000	94.081	-33.5304
66.000000	94.425	-33.4818
67.000000	94.435	-32.9463
68.000000	93.979	-30.4531
69.000000	93.969	-30.1766
70.000000	94.233	-32.7594
71.000000	94.181	-34.0451
72.000000	93.804	-33.3718
73.000000	93.596	-33.1685
74.000000	93.557	-34.2909
75.000000	93.488	-34.8430
76.199997	93.394	-35.3946
77.500000	93.167	-36.5270
78.800003	93.065	-36.3517
80.000000	93.161	-36.6733
81.199997	93.118	-37.8053
82.500000	92.794	-38.0610
83.800003	92.798	-38.4611
85.000000	92.548	-39.8536
86.199997	92.416	-39.0914
87.500000	92.547	-39.1826
88.500000	92.458	-39.6666
90.000000	92.156	-39.9382
91.199997	92.068	-38.9398
92.500000	91.951	-41.0534
93.800003	91.745	-40.6536
95.000000	91.820	-40.0331
96.199997	91.680	-40.3164
97.500000	91.648	-40.4533
98.800003	91.568	-41.1947
100.000000	91.034	-40.8296
101.500000	91.127	-42.0730
103.000000	91.315	-40.9425
104.400002	91.155	-41.0630
106.000000	91.002	-42.0267
107.500000	90.958	-42.4695
109.000000	90.632	-42.5946
110.599998	90.470	-40.8961
112.000000	90.335	-43.1717
113.800003	90.611	-43.6433
115.000000	90.181	-43.9845
117.199997	90.079	-43.7846
118.000000	89.882	-42.3302
120.599998	89.846	-43.6530
122.000000	89.681	-43.0916
124.099998	89.540	-43.5113
125.000000	89.456	-43.6756
126.500000	89.219	-42.3560
128.000000	89.145	-42.6788
131.500000	89.041	-42.4899
132.000000	88.922	-43.3474
134.000000	89.121	-42.2516
136.000000	88.785	-42.2318
138.000000	88.407	-42.3452
140.000000	88.220	-41.5592
143.000000	88.197	-41.0379
145.000000	88.165	-40.0205
147.500000	88.219	-42.7786
150.000000	87.612	-40.2805
152.500000	87.505	-40.4712
155.000000	87.426	-39.2421
157.500000	87.307	-39.6142
160.000000	87.227	-39.5312
162.500000	86.907	-37.5780
165.000000	86.686	-38.5979
167.500000	86.322	-35.9841
170.000000	86.624	-37.3590
172.500000	86.396	-37.3470
175.000000	86.908	-35.1176
177.500000	86.096	-37.6428
180.000000	86.815	-33.1584
182.500000	85.657	-32.7227
185.000000	85.729	-32.6309
187.500000	85.860	-32.5488
190.000000	85.388	-30.2708
192.500000	85.634	-30.6365
195.000000	85.315	-28.1411
197.500000	85.527	-28.4759
200.000000	85.647	-25.5643
203.000000	85.183	-26.1853
206.000000	85.407	-23.7220
209.000000	85.475	-24.7025
212.000000	85.089	-22.8293
214.000000	85.234	-25.9569
218.000000	84.718	-22.9512
220.000000	85.000	-24.5005
224.000000	84.864	-20.8301
227.000000	85.023	-20.0109
230.000000	84.690	-20.3283
233.000000	84.718	-19.5688
236.000000	84.945	-19.1618
240.000000	84.567	-19.5579
243.000000	84.720	-16.8123
247.000000	84.788	-14.8462
250.000000	84.350	-12.6147
254.000000	84.665	-13.4641
258.000000	84.590	-11.1043
262.000000	84.444	-12.6565
265.000000	84.721	-12.3516
269.000000	84.718	-11.7537
272.000000	84.714	-9.6966
276.000000	84.413	-10.0011
280.000000	84.649	-7.3224
285.000000	84.580	-10.0464
290.000000	84.490	-7.2099
295.000000	84.308	-6.1805
300.000000	84.616	-3.3203
304.000000	84.665	-4.3388
307.000000	84.616	-3.0522
311.000000	84.517	-3.3048
315.000000	84.500	-2.7324
320.000000	84.771	-2.8782
325.000000	84.769	-1.2830
330.000000	84.780	0.2764
335.000000	84.623	0.1186
340.000000	84.852	0.7983
345.000000	84.925	1.4374
350.000000	84.944	1.7230
355.000000	84.830	5.0175
360.000000	84.533	1.3145
365.000000	84.608	2.6171
370.000000	85.259	5.0177
375.000000	85.280	5.0698
382.000000	85.025	3.8223
387.000000	84.948	7.5519
395.000000	85.199	7.1115
400.000000	85.328	7.1132
406.000000	85.186	7.3115
412.000000	85.440	9.2689
418.000000	85.178	9.0576
425.000000	85.527	10.8080
431.000000	85.801	8.9662
437.000000	85.506	10.3308
444.000000	85.625	10.6656
450.000000	85.501	10.0905
455.000000	85.369	11.2820
462.000000	85.513	11.6073
468.000000	85.484	11.9189
475.000000	85.586	12.9398
482.000000	85.637	13.2344
487.000000	85.647	14.2828
494.000000	85.813	12.9000
500.000000	85.633	13.6536
508.000000	85.693	14.4334
515.000000	85.756	14.2408
522.000000	85.776	14.8660
530.000000	85.940	15.5225
538.000000	85.853	16.3651
545.000000	85.835	16.8682
552.000000	85.919	16.2665
560.000000	85.912	17.3967
570.000000	86.043	17.9235
580.000000	85.897	18.3839
590.000000	86.085	19.0183
600.000000	86.069	19.3574
608.000000	86.130	19.7909
615.000000	86.230	19.9347
622.000000	86.002	20.3549
630.000000	86.279	21.2599
640.000000	86.267	21.3613
650.000000	86.294	22.0843
660.000000	86.313	22.7669
670.000000	86.360	23.2327
680.000000	86.393	23.9698
690.000000	86.330	24.2384
700.000000	86.471	25.3328
710.000000	86.471	24.8439
720.000000	86.529	26.1931
730.000000	86.539	26.5368
740.000000	86.612	26.0455
750.000000	86.702	27.8099
762.000000	86.693	28.0709
775.000000	86.687	29.1030
788.000000	86.786	29.6343
800.000000	86.889	30.4569
812.000000	86.980	30.8480
825.000000	86.998	31.7148
838.000000	87.096	32.5634
850.000000	87.168	32.6816
862.000000	87.166	32.8328
875.000000	87.254	34.2837
885.000000	87.252	34.7450
900.000000	87.493	34.9691
912.000000	87.571	35.6965
925.000000	87.671	35.9703
938.000000	87.711	37.1371
950.000000	87.773	37.6760
962.000000	87.922	37.4743
975.000000	87.975	38.1063
988.000000	88.040	38.4266
1000.000000	88.209	38.7513
1015.000000	88.260	38.9412
1030.000000	88.512	39.1940
1044.000000	88.515	39.8994
1060.000000	88.654	39.9990
1075.000000	88.776	40.3810
1090.000000	88.835	40.2088
1106.000000	88.982	40.6627
1120.000000	89.005	40.8599
1138.000000	89.151	40.7925
1150.000000	89.267	41.1405
1172.000000	89.368	41.2985
1180.000000	89.403	41.4178
1206.000000	89.507	41.2476
1220.000000	89.563	41.4306
1241.000000	89.752	41.5104
1250.000000	89.790	41.5137
1265.000000	89.910	41.6810
1280.000000	90.006	41.8294
1315.000000	90.205	41.7193
1320.000000	90.236	41.9911
1340.000000	90.368	41.8712
1360.000000	90.522	42.0078
1380.000000	90.660	42.0486
1400.000000	90.753	42.4153
1430.000000	90.931	42.3413
1450.000000	91.028	42.4810
1475.000000	91.160	42.8268
1500.000000	91.304	42.9991
1525.000000	91.431	43.2325
1550.000000	91.537	43.4172
1575.000000	91.645	43.6559
1600.000000	91.760	43.7825
1625.000000	91.868	44.0802
1650.000000	91.975	44.2415
1675.000000	92.083	44.5244
1700.000000	92.209	44.8103
1725.000000	92.314	45.0795
1750.000000	92.437	45.2629
1775.000000	92.573	45.5093
1800.000000	92.685	45.6756
1825.000000	92.804	45.8891
1850.000000	92.936	45.9838
1875.000000	93.062	46.2506
1900.000000	93.204	46.3625
1925.000000	93.331	46.5159
1950.000000	93.463	46.6297
1975.000000	93.607	46.7374
2000.000000	93.749	46.8463
2030.000000	93.916	46.9208
2060.000000	94.076	46.9167
2090.000000	94.253	46.9105
2120.000000	94.434	46.8570
2140.000000	94.556	46.8047
2180.000000	94.789	46.6252
2200.000000	94.908	46.4843
2240.000000	95.149	46.1695
2270.000000	95.328	45.8314
2300.000000	95.509	45.5066
2330.000000	95.684	45.0828
2360.000000	95.863	44.5927
2400.000000	96.097	43.8570
2430.000000	96.266	43.1604
2470.000000	96.485	42.2385
2500.000000	96.653	41.4618
2540.000000	96.857	40.2995
2580.000000	97.049	39.0766
2620.000000	97.227	37.7026
2650.000000	97.347	36.6158
2690.000000	97.491	35.1496
2720.000000	97.585	33.9439
2760.000000	97.695	32.2920
2800.000000	97.779	30.6597
2850.000000	97.851	28.5579
2900.000000	97.884	26.4179
2950.000000	97.881	24.3315
3000.000000	97.845	22.3144
3040.000000	97.797	20.7508
3070.000000	97.740	19.6440
3110.000000	97.663	18.2417
3150.000000	97.563	16.8520
3200.000000	97.428	15.3101
3250.000000	97.283	13.8513
3300.000000	97.126	12.5367
3350.000000	96.959	11.2802
3400.000000	96.786	10.1232
3450.000000	96.604	9.0791
3500.000000	96.414	8.1287
3550.000000	96.218	7.2402
3600.000000	96.013	6.5722
3650.000000	95.806	5.9889
3700.000000	95.604	5.5393
3750.000000	95.414	5.2578
3820.000000	95.159	4.9884
3870.000000	94.977	4.8485
3950.000000	94.714	4.6923
4000.000000	94.543	4.6119
4060.000000	94.342	4.6335
4120.000000	94.139	4.7707
4180.000000	93.939	4.9744
4250.000000	93.725	5.4792
4310.000000	93.552	5.9414
4370.000000	93.406	6.5013
4440.000000	93.258	7.3021
4500.000000	93.144	7.9274
4550.000000	93.057	8.5115
4620.000000	92.966	9.2649
4680.000000	92.913	9.8941
4750.000000	92.850	10.5515
4820.000000	92.790	11.1446
4870.000000	92.757	11.5568
4940.000000	92.710	12.0275
5000.000000	92.671	12.4597
5080.000000	92.623	12.9262
5150.000000	92.580	13.2868
5220.000000	92.534	13.6058
5300.000000	92.476	13.9434
5380.000000	92.429	14.2364
5450.000000	92.368	14.5011
5520.000000	92.298	14.7632
5600.000000	92.202	15.0652
5700.000000	92.082	15.4650
5800.000000	91.944	16.0554
5900.000000	91.811	16.6454
6000.000000	91.669	17.4430
6080.000000	91.561	18.1711
6150.000000	91.453	18.8997
6220.000000	91.372	19.6643
6300.000000	91.269	20.6703
6400.000000	91.169	22.1696
6500.000000	91.090	23.8241
6600.000000	91.056	25.6156
6700.000000	91.051	27.6043
6800.000000	91.100	29.6309
6900.000000	91.257	31.6619
7000.000000	91.500	33.5416
7100.000000	91.813	35.2950
7200.000000	92.195	36.8574
7300.000000	92.611	38.1180
7400.000000	93.106	38.9336
7500.000000	93.663	39.4040
7620.000000	94.481	38.6445
7750.000000	95.454	36.0859
7880.000000	96.231	31.2923
8000.000000	96.788	24.4344
8120.000000	96.986	15.5088
8250.000000	96.619	5.0701
8380.000000	95.674	-4.1075
8500.000000	94.452	-10.0851
8620.000000	93.068	-13.2073
8750.000000	91.605	-12.6236
8850.000000	90.948	-9.9653
9000.000000	90.591	-10.3773
9120.000000	89.883	-13.3850
9250.000000	88.786	-14.9930
9380.000000	87.688	-14.1648
9500.000000	86.830	-12.3839
9620.000000	86.136	-10.2797
9750.000000	85.473	-7.8503
9880.000000	84.955	-5.4080
10000.000000	84.557	-3.1533
10150.000000	84.193	-0.5658
10300.000000	83.939	1.7470
10440.000000	83.803	3.8538
10600.000000	83.786	5.4257
10750.000000	83.874	6.1648
10900.000000	84.002	6.3401
11060.000000	84.300	4.9549
11200.000000	84.489	4.2141
11380.000000	84.679	1.0605
11500.000000	84.740	-1.6548
11720.000000	84.697	-6.8121
11800.000000	84.609	-8.6378
12060.000000	84.144	-13.6030
12200.000000	83.830	-15.5494
12410.000000	83.545	-17.8230
12500.000000	83.438	-18.7395
12650.000000	83.246	-20.2294
12800.000000	83.103	-21.2067
13150.000000	82.667	-23.7461
13200.000000	82.609	-24.2573
13400.000000	82.365	-25.3209
13600.000000	82.142	-25.9594
13800.000000	82.057	-25.9814
14000.000000	82.163	-26.5277
14300.000000	82.374	-28.2354
14500.000000	82.577	-29.2068
14750.000000	83.035	-32.3018
15000.000000	83.655	-36.8648
15250.000000	84.498	-43.6267
15500.000000	85.475	-54.3812
15750.000000	86.424	-70.3098
16000.000000	86.875	-93.3711
16250.000000	86.216	-120.2171
16500.000000	84.528	-145.2784
16750.000000	82.514	-166.8134
17000.000000	80.621	174.0150
17250.000000	79.006	155.3745
17500.000000	77.835	136.9857
17750.000000	76.826	115.4533
18000.000000	76.621	94.6813
18250.000000	76.607	72.8985
18500.000000	76.846	47.8470
18750.000000	77.397	21.0904
19000.000000	78.130	-9.3849
19250.000000	78.829	-45.8159
19500.000000	79.163	-88.4432
19750.000000	78.522	-136.8573
